sec,nanosec,pos_x,pos_y,pos_z,quat_x,quat_y,quat_z,quat_w,accel_x,accel_y,accel_z,gyro_x,gyro_y,gyro_z,dvl_vx,dvl_vy,dvl_vz
1789488995,621489816,21.01424789428711,-285.8864440917969,-2.9080662727355957,3.8869635318405926e-05,0.0005811820738017559,-0.9888413548469543,-0.1489713042974472,0.0,0.0,0.0,0.0,0.0,0.0,0.0,0.0,0.0
1789488995,634441090,21.00141716003418,-285.88787841796875,-2.9080662727355957,3.91451503674034e-05,0.0005818842328153551,-0.9887424111366272,-0.149626687169075,0.0,0.0,0.0,0.0,0.0,0.0,0.0,0.0,0.0
1789488995,647246625,20.988584518432617,-285.8893127441406,-2.9080662727355957,3.956117507186718e-05,0.0005815575714223087,-0.9886469841003418,-0.15025566518306732,0.0,0.0,0.0,0.0,0.0,0.0,0.0,0.0,0.0
1789488995,659729915,20.975744247436523,-285.89080810546875,-2.9080662727355957,4.006556628155522e-05,0.0005805467953905463,-0.9885552525520325,-0.15085826814174652,0.0,0.0,0.0,0.0,0.0,0.0,0.0,0.0,0.0
1789488995,672624979,20.9628963470459,-285.89227294921875,-2.9080662727355957,4.04647653340362e-05,0.0005801246734336019,-0.9884670972824097,-0.15143455564975739,0.0,0.0,0.0,0.0,0.0,0.0,0.0,0.0,0.0
1789488995,685066760,20.95004653930664,-285.8937683105469,-2.9080662727355957,4.0746712329564616e-05,0.0005803682724945247,-0.9883826971054077,-0.1519845426082611,0.0,0.0,0.0,0.0,0.0,0.0,0.0,0.0,0.0
1789488995,697300383,20.937196731567383,-285.8952941894531,-2.9080662727355957,4.0954098949441686e-05,0.000580997730139643,-0.9883020520210266,-0.15250827372074127,0.0,0.0,0.0,0.0,0.0,0.0,0.0,0.0,0.0
1789488995,709649374,20.924352645874023,-285.8968200683594,-2.9080662727355957,4.112492752028629e-05,0.0005817653727717698,-0.9882251024246216,-0.15300579369068146,0.0,0.0,0.0,0.0,0.0,0.0,0.0,0.0,0.0
1789488995,722279162,20.911516189575195,-285.8983459472656,-2.9080660343170166,4.1278934077126905e-05,0.0005825432599522173,-0.988152027130127,-0.15347716212272644,0.0,0.0,0.0,0.0,0.0,0.0,0.0,0.0,0.0
1789488995,734840911,20.89868927001953,-285.89990234375,-2.9080660343170166,4.142213219893165e-05,0.0005832926835864782,-0.988082766532898,-0.1539224237203598,0.0,0.0,0.0,0.0,0.0,0.0,0.0,0.0,0.0
1789488995,747101193,20.8858642578125,-285.9014892578125,-2.9080660343170166,4.171549153397791e-05,0.0005829814472235739,-0.9880173802375793,-0.15434163808822632,-0.013244695030152798,-0.003459528787061572,9.799997329711914,-4.610278847394511e-05,1.6758760466473177e-05,-0.026306994259357452,0.352146714925766,0.16157987713813782,0.000155503730638884
1789488995,759549224,20.873027801513672,-285.903076171875,-2.9080662727355957,4.210302358842455e-05,0.0005819691577926278,-0.9879558682441711,-0.15473486483097076,0.006899591535329819,0.0038174367509782314,9.799860954284668,6.642987864324823e-05,5.08512748638168e-05,-0.02472851239144802,0.35220760107040405,0.16238640248775482,0.00015142471238505095
1789488995,772316860,20.860185623168945,-285.9046630859375,-2.9080662727355957,4.2380241211503744e-05,0.0005815646145492792,-0.9878982901573181,-0.15510216355323792,0.004223475698381662,0.0012291710590943694,9.80003547668457,4.567148062051274e-05,4.2312778532505035e-05,-0.0231535155326128,0.3521873652935028,0.16308759152889252,0.00015307452122215182
1789488995,785314873,20.847341537475586,-285.90625,-2.9080662727355957,4.253504448570311e-05,0.0005818440113216639,-0.9878445863723755,-0.15544360876083374,0.0013025477528572083,-0.0003273132024332881,9.800071716308594,-1.4004457398186787e-06,2.530351594032254e-05,-0.02158220484852791,0.352077841758728,0.16371816396713257,0.00015596863522659987
1789488995,799190665,20.83449935913086,-285.9078674316406,-2.9080662727355957,4.261284266249277e-05,0.0005825174157507718,-0.9877948760986328,-0.1557592749595642,-0.0016614783089607954,-0.0014850435545668006,9.800049781799316,-3.4091070119757205e-05,1.2896650332550053e-05,-0.020014800131320953,0.3518775701522827,0.1642918437719345,0.00015816514496691525
1789488995,811321709,20.8216609954834,-285.9095153808594,-2.9080660343170166,4.2653886339394376e-05,0.0005833288887515664,-0.9877490997314453,-0.1560492217540741,-0.004560473375022411,-0.00258430908434093,9.800023078918457,-4.797857764060609e-05,6.5428939706180245e-06,-0.018451524898409843,0.3515886962413788,0.16481082141399384,0.00015949546650517732
1789488995,823834168,20.80883026123047,-285.9111328125,-2.9080660343170166,4.267866461304948e-05,0.0005841486272402108,-0.9877073168754578,-0.15631352365016937,-0.007358388509601355,-0.003740341169759631,9.800005912780762,-5.050191975897178e-05,3.860991910187295e-06,-0.016892606392502785,0.3512146472930908,0.16527330875396729,0.00016026922094170004
1789488995,836197020,20.796010971069336,-285.91278076171875,-2.9080660343170166,4.2693391151260585e-05,0.0005849374574609101,-0.9876695275306702,-0.1565522849559784,-0.010058454237878323,-0.004948087502270937,9.799996376037598,-4.8825095291249454e-05,2.5424133127671666e-06,-0.015338271856307983,0.35075876116752625,0.16567762196063995,0.00016068662807811052
1789488995,849038595,20.783191680908203,-285.9144592285156,-2.9080660343170166,4.28645325882826e-05,0.0005846458952873945,-0.9876356720924377,-0.15676556527614594,-0.012677685357630253,-0.006158670876175165,9.799996376037598,-4.654915755963884e-05,1.4224104916138458e-06,-0.013788742013275623,0.35022374987602234,0.16602371633052826,0.00016107040573842824
1789488995,862408353,20.77036476135254,-285.9161071777344,-2.9080660343170166,4.3133768485859036e-05,0.0005836422205902636,-0.9876058101654053,-0.15695346891880035,0.007429220713675022,0.0012383426073938608,9.799854278564453,6.78071883157827e-05,3.677992572193034e-05,-0.012244205921888351,0.3503674268722534,0.1665978729724884,0.00015661309589631855
1789488995,875574614,20.757530212402344,-285.91778564453125,-2.9080662727355957,4.328988507040776e-05,0.0005832572933286428,-0.9875799417495728,-0.1571160852909088,0.0047796680592000484,-0.001388149568811059,9.800033569335938,4.658435864257626e-05,2.8018108423566446e-05,-0.01070495042949915,0.35043132305145264,0.16706591844558716,0.00015803203859832138
1789488995,888273521,20.744693756103516,-285.91949462890625,-2.9080662727355957,4.332077151047997e-05,0.0005835671327076852,-0.987558126449585,-0.15725348889827728,0.0018708351999521255,-0.0029536669608205557,9.800066947937012,-1.1968170383624965e-06,1.0592058060865384e-05,-0.009171162731945515,0.3504067063331604,0.16746363043785095,0.0001605939178261906
1789488995,900495424,20.73185920715332,-285.9211730957031,-2.9080660343170166,4.3273234041407704e-05,0.0005842774407938123,-0.9875401854515076,-0.1573657989501953,-0.0010836319997906685,-0.004121011588722467,9.800048828125,-3.436852784943767e-05,-2.071941025860724e-06,-0.007643044926226139,0.3502919673919678,0.16780473291873932,0.00016261507698800415
1789488995,912762147,20.719030380249023,-285.9228820800781,-2.9080660343170166,4.31890512118116e-05,0.0005851259920746088,-0.9875262975692749,-0.15745310485363007,-0.003972082398831844,-0.005234679207205772,9.800020217895508,-4.849377728533e-05,-8.514181899954565e-06,-0.0061208088882267475,0.3500892221927643,0.1680913269519806,0.00016370553930755705
1789488995,925723500,20.706207275390625,-285.9245910644531,-2.9080660343170166,4.308963616495021e-05,0.0005859786760993302,-0.9875163435935974,-0.1575155109167099,-0.0067655486054718494,-0.006387024186551571,9.800000190734863,-5.0817066949093714e-05,-1.1094475667050574e-05,-0.004604666028171778,0.3498016595840454,0.16832228004932404,0.0001641042181290686
1789488995,938589225,20.693397521972656,-285.9263000488281,-2.9080660343170166,4.298108979128301e-05,0.000586797425057739,-0.9875103235244751,-0.15755312144756317,-0.009460481815040112,-0.007592466659843922,9.799994468688965,-4.88731857331004e-05,-1.2273862921574619e-05,-0.0030948282219469547,0.3494325280189514,0.16849590837955475,0.00016429706010967493
1789488995,950688440,20.680587768554688,-285.92803955078125,-2.9080660343170166,4.3031770474044606e-05,0.0005865273997187614,-0.9875082969665527,-0.15756605565547943,-0.012073065154254436,-0.008808369748294353,9.799993515014648,-4.650859045796096e-05,-1.3310168469615746e-05,-0.0015915032709017396,0.34898456931114197,0.16861192882061005,0.0001644370931899175
1789488995,963124800,20.667768478393555,-285.9297790527344,-2.9080660343170166,4.3182317313039675e-05,0.0005855410709045827,-0.9875101447105408,-0.15755440294742584,0.008018692955374718,-0.001362524228170514,9.799850463867188,6.861551810288802e-05,2.2582642486668192e-05,-9.486345516052097e-05,0.3492148518562317,0.16895848512649536,0.00015968058141879737
1789488995,975571720,20.654945373535156,-285.9315185546875,-2.9080660343170166,4.321877713664435e-05,0.0005851800087839365,-0.9875158667564392,-0.15751831233501434,0.005379797425121069,-0.00399906886741519,9.800031661987305,4.714040187536739e-05,1.3757650776824448e-05,0.0013948167907074094,0.3493657410144806,0.1691991686820984,0.0001608418970135972
1789488995,988851150,20.642118453979492,-285.9332580566406,-2.9080660343170166,4.312935197958723e-05,0.0005855187773704529,-0.9875255227088928,-0.1574578881263733,0.0024780218955129385,-0.005572158377617598,9.800065040588379,-1.1149616057082312e-06,-3.8230741665756796e-06,0.002877367427572608,0.34942835569381714,0.1693698912858963,0.00016315715038217604
1789488996,1683985,20.62929344177246,-285.93499755859375,-2.9080660343170166,4.2962008592439815e-05,0.0005862571997568011,-0.9875389933586121,-0.15737323462963104,-0.0004741037846542895,-0.006732430774718523,9.800043106079102,-3.44155341736041e-05,-1.64952489285497e-05,0.004352600779384375,0.3494008779525757,0.16948489844799042,0.00016480489284731448
1789488996,14655239,20.616474151611328,-285.936767578125,-2.9080660343170166,4.27589584433008e-05,0.0005871310131624341,-0.9875563383102417,-0.15726450085639954,-0.003363949479535222,-0.00783058162778616,9.800015449523926,-4.8348440031986684e-05,-2.2818994693807326e-05,0.005820319056510925,0.3492852449417114,0.16954664885997772,0.00016556793707422912
1789488996,26816383,20.60366439819336,-285.9385070800781,-2.9080660343170166,4.254148734617047e-05,0.00058800692204386,-0.9875774383544922,-0.15713179111480713,-0.006156299263238907,-0.0089764054864645,9.799999237060547,-5.0539518269943073e-05,-2.529439007048495e-05,0.007280324120074511,0.34908461570739746,0.1695537269115448,0.00016577793576288968
1789488996,40075622,20.590864181518555,-285.9402770996094,-2.9080657958984375,4.231579077895731e-05,0.0005888463347218931,-0.9876023530960083,-0.15697526931762695,-0.00885123573243618,-0.010173496790230274,9.799992561340332,-4.850433106184937e-05,-2.638184196257498e-05,0.008732418529689312,0.34880220890045166,0.1695045530796051,0.00016574462642893195
1789488996,52299985,20.578065872192383,-285.9420471191406,-2.9080657958984375,4.224877557135187e-05,0.0005885991849936545,-0.9876309633255005,-0.15679503977298737,-0.011466660536825657,-0.011370914988219738,9.799991607666016,-4.596025246428326e-05,-2.7296686312183738e-05,0.01017641182988882,0.34844061732292175,0.169399231672287,0.0001656380482017994
1789488996,64440889,20.565258026123047,-285.9438171386719,-2.9080660343170166,4.228112811688334e-05,0.0005876392242498696,-0.9876633286476135,-0.1565912365913391,0.008627984672784805,-0.003957868088036776,9.799845695495605,6.879745342303067e-05,8.371986041311175e-06,0.011612143367528915,0.3487569987773895,0.16952423751354218,0.000160533600137569
1789488996,77380134,20.552446365356445,-285.94561767578125,-2.9080660343170166,4.220075061311945e-05,0.0005873034242540598,-0.9876993298530579,-0.15636402368545532,0.005983751267194748,-0.006576661951839924,9.800026893615723,4.727449777419679e-05,-3.579610563519964e-07,0.013039357028901577,0.34899353981018066,0.16954457759857178,0.00016138204955495894
1789488996,90620553,20.53963279724121,-285.9473876953125,-2.9080660343170166,4.199619797873311e-05,0.0005876654176972806,-0.9877389669418335,-0.15611352026462555,0.0030780232045799494,-0.008131825365126133,9.800064086914062,-8.783886187302414e-07,-1.7720652977004647e-05,0.01445789821445942,0.34914135932922363,0.16949622333049774,0.0001635049848118797
1789488996,103360890,20.526819229125977,-285.94915771484375,-2.9080660343170166,4.171529144514352e-05,0.0005884243291802704,-0.9877821803092957,-0.15583987534046173,0.00012473578681237996,-0.009281442500650883,9.800040245056152,-3.4113738365704194e-05,-3.0206087103579193e-05,0.01586759462952614,0.3491986095905304,0.16939324140548706,0.0001649171463213861
1789488996,115492154,20.514013290405273,-285.9509582519531,-2.9080660343170166,4.1400046029593796e-05,0.0005893149645999074,-0.9878289103507996,-0.155543252825737,-0.0027694469317793846,-0.010358629748225212,9.800012588500977,-4.784921111422591e-05,-3.634634049376473e-05,0.017268266528844833,0.3491671085357666,0.16923843324184418,0.00016542720550205559
1789488996,128398979,20.5012149810791,-285.9527282714844,-2.9080657958984375,4.1071445593843237e-05,0.0005902047269046307,-0.9878791570663452,-0.1552237719297409,-0.0055672405287623405,-0.011483640410006046,9.799996376037598,-4.985506529919803e-05,-3.8677062548231333e-05,0.01865973509848118,0.3490499258041382,0.16903045773506165,0.00016537417832296342
1789488996,141801476,20.48843002319336,-285.95452880859375,-2.9080657958984375,4.073547825100832e-05,0.000591056130360812,-0.9879328608512878,-0.15488161146640778,-0.008268238045275211,-0.012658911757171154,9.799989700317383,-4.768861617776565e-05,-3.9651575207244605e-05,0.020041821524500847,0.3488502502441406,0.1687677800655365,0.00016508754924871027
1789488996,154849139,20.475643157958984,-285.9563293457031,-2.9080657958984375,4.055458339280449e-05,0.0005908324383199215,-0.9879899621009827,-0.15451692044734955,-0.010891101323068142,-0.013833386823534966,9.7999849319458,-4.5062395656714216e-05,-4.047053153044544e-05,0.021414348855614662,0.34857049584388733,0.16845060884952545,0.0001646070450078696
1789488996,168090099,20.46285057067871,-285.9580993652344,-2.9080660343170166,4.047058246214874e-05,0.0005899055395275354,-0.9880504012107849,-0.15412984788417816,0.009247547015547752,-0.00651191733777523,9.799846649169922,6.848236807854846e-05,-5.667878667736659e-06,0.022777177393436432,0.34896954894065857,0.1683616191148758,0.00015939846343826503
1789488996,180275253,20.450050354003906,-285.95989990234375,-2.9080660343170166,4.027710383525118e-05,0.0005895965150557458,-0.9881141781806946,-0.15372057259082794,0.006585502065718174,-0.009096928872168064,9.800024032592773,4.701779835158959e-05,-1.4181131518853363e-05,0.024130070582032204,0.34928759932518005,0.1681697964668274,0.0001600081886863336
1789488996,195612146,20.4372501373291,-285.9617004394531,-2.9080660343170166,3.996354644186795e-05,0.0005899754469282925,-0.9881811738014221,-0.15328924357891083,0.003667475190013647,-0.010617128573358059,9.800060272216797,-6.095677349549078e-07,-3.101618494838476e-05,0.025472890585660934,0.3495158553123474,0.1679111272096634,0.00016185724234674126
1789488996,208433261,20.424453735351562,-285.9635009765625,-2.9080660343170166,3.957648004870862e-05,0.0005907447193749249,-0.9882513880729675,-0.15283602476119995,0.0007039407500997186,-0.011735670268535614,9.800037384033203,-3.336662848596461e-05,-4.3059266317868605e-05,0.026805484667420387,0.3496524691581726,0.1675996482372284,0.00016298977425321937
1789488996,222259804,20.41166114807129,-285.96527099609375,-2.9080657958984375,3.9156606362666935e-05,0.0005916428635828197,-0.9883247017860413,-0.15236108005046844,-0.0021975517738610506,-0.012789719738066196,9.800009727478027,-4.689936031354591e-05,-4.895658275927417e-05,0.02812769077718258,0.34969937801361084,0.16723790764808655,0.00016324050375260413
1789488996,234974670,20.39887809753418,-285.9670715332031,-2.9080657958984375,3.872458546538837e-05,0.0005925369332544506,-0.9884011149406433,-0.15186458826065063,-0.005003472324460745,-0.013888785615563393,9.799993515014648,-4.8823167162481695e-05,-5.1156246627215296e-05,0.029439346864819527,0.3496595621109009,0.16682468354701996,0.00016293329827021807
1789488996,248848682,20.386091232299805,-285.9688720703125,-2.9080657958984375,3.844316961476579e-05,0.0005923670832999051,-0.9884805679321289,-0.15134672820568085,-0.007719999644905329,-0.015020523220300674,9.799983024597168,-4.640638508135453e-05,-5.197445716476068e-05,0.030740294605493546,0.34953588247299194,0.1663590967655182,0.0001622724230401218
1789488996,263073360,20.373294830322266,-285.9706726074219,-2.9080660343170166,3.825731255346909e-05,0.0005914922221563756,-0.9885629415512085,-0.1508076786994934,0.012410608120262623,-0.007841603830456734,9.799847602844238,6.627031689276919e-05,-1.8140342945116572e-05,0.03203040733933449,0.3500899374485016,0.16611772775650024,0.0001569661108078435
1789488996,275210364,20.360490798950195,-285.9724426269531,-2.9080660343170166,3.79675802832935e-05,0.000591216841712594,-0.9886482357978821,-0.15024758875370026,0.00965366791933775,-0.010402520187199116,9.800020217895508,4.5817490899935365e-05,-2.6095489374711178e-05,0.033309467136859894,0.3505591154098511,0.1657748520374298,0.00015732529573142529
1789488996,289415141,20.347681045532227,-285.9742431640625,-2.9080660343170166,3.756341538974084e-05,0.0005916130030527711,-0.9887363314628601,-0.1496666669845581,0.006656174082309008,-0.011922466568648815,9.800056457519531,-8.43787859139411e-07,-4.2182135075563565e-05,0.03457735478878021,0.35093510150909424,0.16536572575569153,0.000158911308972165
1789488996,302763530,20.33487319946289,-285.97601318359375,-2.9080660343170166,3.708943768288009e-05,0.0005923892022110522,-0.9888272285461426,-0.14906509220600128,0.003613098058849573,-0.013026116415858269,9.800033569335938,-3.2808347896207124e-05,-5.3632080380339175e-05,0.0358339287340641,0.35121601819992065,0.16490484774112701,0.00015979843738023192
1789488996,315454857,20.322067260742188,-285.9778137207031,-2.9080657958984375,3.658456989796832e-05,0.0005932894418947399,-0.9889208078384399,-0.14844302833080292,0.0006353434873744845,-0.014074157923460007,9.800006866455078,-4.601602995535359e-05,-5.922742639086209e-05,0.03707904741168022,0.3514038622379303,0.1643945425748825,0.00015983555931597948
1789488996,327312805,20.309267044067383,-285.9795837402344,-2.9080657958984375,3.606832979130559e-05,0.0005941849667578936,-0.9890170097351074,-0.14780068397521973,-0.002249687211588025,-0.015155881643295288,9.7999906539917,-4.7759687731740996e-05,-6.126328662503511e-05,0.03831256553530693,0.3515015244483948,0.16383397579193115,0.00015932705719023943
1789488996,339756925,20.296478271484375,-285.9813537597656,-2.9080657958984375,3.554617433110252e-05,0.0005950399208813906,-0.9891157746315002,-0.14713825285434723,-0.005040187854319811,-0.016284922137856483,9.799981117248535,-4.546364289126359e-05,-6.204644159879535e-05,0.03953434154391289,0.35151198506355286,0.1632218211889267,0.00015847719623707235
1789488996,351839500,20.2836856842041,-285.9831237792969,-2.9080657958984375,3.516478682286106e-05,0.0005948672187514603,-0.9892170429229736,-0.14645589888095856,-0.007752925157546997,-0.0174106378108263,9.799982070922852,-4.277174957678653e-05,-6.26997061772272e-05,0.04074424132704735,0.35143765807151794,0.1625584065914154,0.0001576130889588967
1789488996,364922292,20.270885467529297,-285.9848937988281,-2.9080657958984375,3.487106005195528e-05,0.0005940247792750597,-0.989320695400238,-0.14575383067131042,0.012434612028300762,-0.010458630509674549,9.799853324890137,6.597022002097219e-05,-3.115136860287748e-05,0.04194214940071106,0.3520418703556061,0.16211259365081787,0.00015234117745421827
1789488996,378317770,20.258075714111328,-285.9866638183594,-2.9080660343170166,3.447854032856412e-05,0.0005937742535024881,-0.9894267320632935,-0.14503225684165955,0.009643584489822388,-0.012933942489326,9.800018310546875,4.522989911492914e-05,-3.885966361849569e-05,0.0431278757750988,0.35255903005599976,0.16156889498233795,0.0001524714461993426
1789488996,390995627,20.245264053344727,-285.9884338378906,-2.9080660343170166,3.3978350984398276e-05,0.0005941794952377677,-0.9895350933074951,-0.14429135620594025,0.006630070507526398,-0.014391154982149601,9.800047874450684,-5.65514312711457e-07,-5.4046817240305245e-05,0.044301316142082214,0.3529813587665558,0.16096185147762299,0.00015364000864792615
1789488996,403420948,20.232452392578125,-285.99017333984375,-2.9080657958984375,3.341306728543714e-05,0.0005949526093900204,-0.9896456003189087,-0.14353133738040924,0.003580102464184165,-0.015450745820999146,9.800030708312988,-3.179361374350265e-05,-6.479163857875392e-05,0.04546235874295235,0.35330730676651,0.16030538082122803,0.00015429497580043972
1789488996,409438881,20.219646453857422,-285.991943359375,-2.9080657958984375,3.281952740508132e-05,0.0005958424881100655,-0.9897582530975342,-0.14275240898132324,0.0005942223942838609,-0.016447439789772034,9.800004005432129,-4.447179890121333e-05,-6.995781586738303e-05,0.04661087319254875,0.35353875160217285,0.1596020609140396,0.00015408365288749337
1789488996,425485115,20.206844329833984,-285.9936828613281,-2.9080657958984375,3.221596125513315e-05,0.0005967242177575827,-0.9898729920387268,-0.14195474982261658,-0.002300523454323411,-0.01747802272439003,9.7999849319458,-4.595040809363127e-05,-7.177930820034817e-05,0.04774673655629158,0.35367849469184875,0.15885113179683685,0.00015322961553465575
1789488996,438699885,20.194055557250977,-285.99542236328125,-2.9080657958984375,3.160731284879148e-05,0.0005975639796815813,-0.9899896383285522,-0.14113858342170715,-0.0051015038043260574,-0.01855439692735672,9.799981117248535,-4.355511555331759e-05,-7.244644075399265e-05,0.04886982589960098,0.3537295162677765,0.15805131196975708,0.00015221067587845027
1789488996,450947188,20.181264877319336,-285.9971618652344,-2.9080657958984375,3.1128623959375545e-05,0.0005974133964627981,-0.9901082515716553,-0.14030413329601288,-0.007826229557394981,-0.019626421853899956,9.799980163574219,-4.0836228436091915e-05,-7.30093233869411e-05,0.049980029463768005,0.3536941111087799,0.15720301866531372,0.00015114631969481707
1789488996,463394038,20.16846466064453,-285.9988708496094,-2.9080657958984375,3.073059269809164e-05,0.0005966191529296339,-0.9902287125587463,-0.13945157825946808,0.012479332275688648,-0.012939706444740295,9.799859046936035,6.411710637621582e-05,-4.389308378449641e-05,0.05107725039124489,0.35433995723724365,0.15656456351280212,0.0001459285558667034
1789488996,476133764,20.155656814575195,-286.0006103515625,-2.9080657958984375,3.02415901387576e-05,0.0005963952280580997,-0.9903509020805359,-0.13858114182949066,0.009647020138800144,-0.01531771756708622,9.80001449584961,4.3945790821453556e-05,-5.103386502014473e-05,0.0521613247692585,0.3548961281776428,0.15583233535289764,0.00014579865091945976
1789488996,488150570,20.142847061157227,-286.0023193359375,-2.9080657958984375,2.965376916108653e-05,0.0005968015757389367,-0.9904747605323792,-0.13769304752349854,0.006611753720790148,-0.016701441258192062,9.800041198730469,-2.259909450685882e-07,-6.499460869235918e-05,0.05323216691613197,0.35535550117492676,0.15504011511802673,0.00014662319154012948
1789488996,501118614,20.13003921508789,-286.0040283203125,-2.9080657958984375,2.9006530894548632e-05,0.0005975597305223346,-0.9906002283096313,-0.1367875039577484,0.003551437519490719,-0.01770881749689579,9.80002212524414,-3.033667780982796e-05,-7.485302194254473e-05,0.05428967997431755,0.35571685433387756,0.15420114994049072,0.00014685600763186812
1789488996,513663793,20.11723518371582,-286.0057067871094,-2.9080657958984375,2.8333761292742565e-05,0.0005984275485388935,-0.9907272458076477,-0.135864719748497,0.0005532320938073099,-0.018645621836185455,9.799999237060547,-4.23883757321164e-05,-7.95336309238337e-05,0.055333759635686874,0.3559820055961609,0.15331831574440002,0.00014632876263931394
1789488996,526829844,20.104440689086914,-286.0074157714844,-2.9080657958984375,2.7652286007651128e-05,0.000599284190684557,-0.9908556342124939,-0.13492491841316223,-0.0023525780998170376,-0.019623173400759697,9.7999849319458,-4.3734602513723075e-05,-8.117111428873613e-05,0.05636430159211159,0.35615381598472595,0.15239061415195465,0.00014532956993207335
1789488996,538919799,20.091655731201172,-286.00909423828125,-2.9080657958984375,2.6966519726556726e-05,0.0006000979919917881,-0.9909854531288147,-0.133968323469162,-0.0051718647591769695,-0.020627224817872047,9.799979209899902,-4.1164894355461e-05,-8.1699836300686e-05,0.05738120526075363,0.35623493790626526,0.15141752362251282,0.00014412347809411585
1789488996,551305559,20.078868865966797,-286.0107727050781,-2.9080657958984375,2.639796548464801e-05,0.0005999687127768993,-0.9911165237426758,-0.13299515843391418,-0.007909399457275867,-0.021643847227096558,9.799978256225586,-3.853614907711744e-05,-8.22022047941573e-05,0.058384377509355545,0.35622790455818176,0.1503988802433014,0.0001428786781616509
1789488996,563407314,20.06607437133789,-286.012451171875,-2.9080657958984375,2.590197073004674e-05,0.0005992277874611318,-0.9912487864494324,-0.13200564682483673,0.012495492585003376,-0.015284821391105652,9.79986572265625,6.164585647638887e-05,-5.592188608716242e-05,0.05937374010682106,0.3569040894508362,0.14958028495311737,0.0001377557055093348
1789488996,575581098,20.05327606201172,-286.01409912109375,-2.9080657958984375,2.532379403419327e-05,0.0005990315112285316,-0.9913821816444397,-0.13100001215934753,0.009612794034183025,-0.017542552202939987,9.800009727478027,4.226943929097615e-05,-6.239284994080663e-05,0.060349155217409134,0.3574875295162201,0.1486729383468628,0.00013736016990151256
1789488996,588355164,20.04047393798828,-286.0157470703125,-2.9080657958984375,2.465688703523483e-05,0.0005994339007884264,-0.991516649723053,-0.1299784779548645,0.006556287873536348,-0.01885555125772953,9.80003547668457,-4.641929152171542e-08,-7.500054925912991e-05,0.06131055951118469,0.357972115278244,0.1477089673280716,0.00013785489136353135
1789488996,600650446,20.027673721313477,-286.01739501953125,-2.9080657958984375,2.3937049263622612e-05,0.0006001675501465797,-0.9916520714759827,-0.12894126772880554,0.0034805939067155123,-0.019790057092905045,9.800016403198242,-2.8589154680958018e-05,-8.380758663406596e-05,0.06225787103176117,0.3583568334579468,0.14670172333717346,0.00013778354332316667
1789488996,613233495,20.014877319335938,-286.0190124511719,-2.9080657958984375,2.3194626919575967e-05,0.0006010030047036707,-0.9917883276939392,-0.12788863480091095,0.000470424274681136,-0.02066662907600403,9.799995422363281,-3.993791324319318e-05,-8.796566544333473e-05,0.0631910115480423,0.3586435914039612,0.14565367996692657,0.00013700214913114905
1789488996,625709274,20.002090454101562,-286.0206298828125,-2.9080657958984375,2.244464667455759e-05,0.0006018257117830217,-0.9919254779815674,-0.12682078778743744,-0.002449559513479471,-0.021580837666988373,9.799982070922852,-4.110914233024232e-05,-8.94003824214451e-05,0.06410989165306091,0.3588351309299469,0.14456400275230408,0.0001357859728159383
1789488996,638096685,19.989315032958984,-286.0222473144531,-2.9080657958984375,2.169114668504335e-05,0.0006026049377396703,-0.9920632839202881,-0.12573795020580292,-0.00528491847217083,-0.02251867763698101,9.79997730255127,-3.856837429339066e-05,-8.984660235000774e-05,0.06501444429159164,0.35893410444259644,0.14343227446079254,0.0001343937183264643
1789488996,650834932,19.976539611816406,-286.02386474609375,-2.9080657958984375,2.104117265844252e-05,0.0006024945760145783,-0.9922018051147461,-0.12464039027690887,-0.008041833527386189,-0.02345956675708294,9.799976348876953,-3.588761683204211e-05,-9.024600149132311e-05,0.06590458005666733,0.3589428663253784,0.14225870370864868,0.00013294376549310982
1789488996,663554469,19.963756561279297,-286.02545166015625,-2.9080657958984375,2.0454930563573726e-05,0.0006018097046762705,-0.9923408627510071,-0.12352831661701202,0.012484944425523281,-0.01748151332139969,9.799873352050781,5.873332338524051e-05,-6.704818224534392e-05,0.06678024679422379,0.3596374988555908,0.14127373695373535,0.00012797434465028346
1789488996,675832921,19.950965881347656,-286.02703857421875,-2.9080657958984375,1.9796168999164365e-05,0.000601638515945524,-0.9924803972244263,-0.12240198254585266,0.009548879228532314,-0.019606435671448708,9.800004959106445,4.024359441245906e-05,-7.28048398741521e-05,0.06764134019613266,0.3602362275123596,0.14020554721355438,0.00012732234608847648
1789488996,687799677,19.93817710876465,-286.0285949707031,-2.9080657958984375,1.9059447367908433e-05,0.0006020302535034716,-0.9926204085350037,-0.1212616115808487,0.006465591490268707,-0.020826730877161026,9.800027847290039,2.8435130161597044e-07,-8.390346920350567e-05,0.06848780810832977,0.3607338070869446,0.13908495008945465,0.00012747428263537586
1789488996,700240178,19.92538833618164,-286.0301513671875,-2.9080657958984375,1.8276497939950787e-05,0.0006027315394021571,-0.9927607178688049,-0.12010744959115982,0.0033756159245967865,-0.021696889773011208,9.80001163482666,-2.665254578460008e-05,-9.164002403849736e-05,0.06931959092617035,0.36112964153289795,0.13792437314987183,0.00012711159070022404
1789488996,713869962,19.91260528564453,-286.0317077636719,-2.9080657958984375,1.7474143533036113e-05,0.0006035249680280685,-0.9929012656211853,-0.11893973499536514,0.0003512863477226347,-0.022501956671476364,9.799991607666016,-3.7181147490628064e-05,-9.524204506305978e-05,0.07013662159442902,0.36142563819885254,0.13672657310962677,0.00012608985707629472
1789488996,726274823,19.899829864501953,-286.0332336425781,-2.9080657958984375,1.6665391740389168e-05,0.0006043041939847171,-0.9930420517921448,-0.11775871366262436,-0.002585085341706872,-0.023343056440353394,9.799980163574219,-3.809948611888103e-05,-9.64519422268495e-05,0.07093885540962219,0.361624538898468,0.1354907751083374,0.000124674552353099
1789488996,740503391,19.887067794799805,-286.0347595214844,-2.9080657958984375,1.585373502166476e-05,0.000605040870141238,-0.993182897567749,-0.11656462401151657,-0.005436036270111799,-0.024213438853621483,9.799975395202637,-3.566921077435836e-05,-9.683226380730048e-05,0.07172621786594391,0.3617289364337921,0.13421641290187836,0.0001231022906722501
1789488996,753991338,19.874305725097656,-286.0362854003906,-2.9080657958984375,1.5131314285099506e-05,0.0006049481453374028,-0.993323802947998,-0.11535771191120148,-0.008212292566895485,-0.02507619746029377,9.79997444152832,-3.302537515992299e-05,-9.715023770695552e-05,0.07249865680932999,0.3617410957813263,0.1329040825366974,0.00012147794768679887
1789488996,767089169,19.861536026000977,-286.03778076171875,-2.9080657958984375,1.4463631487160455e-05,0.0006043213070370257,-0.9934647083282471,-0.11413822323083878,0.012437918223440647,-0.019521502777934074,9.799881935119629,5.5336084187729284e-05,-7.715693936916068e-05,0.07325614243745804,0.3624418377876282,0.13176760077476501,0.00011669377272482961
1789488996,781365666,19.84876251220703,-286.0392761230469,-2.9080657958984375,1.3733528248849325e-05,0.0006041730521246791,-0.9936054348945618,-0.11290639638900757,0.00944439135491848,-0.021494243294000626,9.80000114440918,3.797095632762648e-05,-8.213811815949157e-05,0.0739985853433609,0.3630433976650238,0.1305541843175888,0.00011580079444684088
1789488996,793376292,19.83598518371582,-286.0407409667969,-2.9080657958984375,1.293662080570357e-05,0.0006045476184226573,-0.9937459826469421,-0.11166249215602875,0.006334247533231974,-0.02261849120259285,9.800021171569824,6.354062520586012e-07,-9.168080578092486e-05,0.07472595572471619,0.36354151368141174,0.129292830824852,0.00011561563587747514
1789488996,806454604,19.823211669921875,-286.0422058105469,-2.9080657958984375,1.2100342246412765e-05,0.0006052079843357205,-0.9938862919807434,-0.11040674149990082,0.003229689784348011,-0.023413877934217453,9.800005912780762,-2.443511584715452e-05,-9.829793270910159e-05,0.07543821632862091,0.36393603682518005,0.12799522280693054,0.00011496653314679861
1789488996,819480127,19.810443878173828,-286.04364013671875,-2.9080657958984375,1.124774007621454e-05,0.0006059514125809073,-0.994026243686676,-0.10913940519094467,0.00019077953766100109,-0.0241473987698555,9.79998779296875,-3.413196463952772e-05,-0.00010135037882719189,0.07613532990217209,0.36422887444496155,0.12666404247283936,0.00011373266170267016
1789488996,833667905,19.797685623168945,-286.0450744628906,-2.9080657958984375,1.0390033821749967e-05,0.0006066781934350729,-0.99416583776474,-0.10786072909832001,-0.0027612510602921247,-0.024913553148508072,9.79997730255127,-3.4857534046750516e-05,-0.00010235206718789414,0.07681725174188614,0.3644227683544159,0.12529869377613068,0.0001121402092394419
1789488996,846404271,19.78492546081543,-286.0465087890625,-2.9080657958984375,9.609594599169213e-06,0.0006066276691854,-0.994304895401001,-0.10657095909118652,-0.00563154648989439,-0.025697750970721245,9.799973487854004,-3.237310374970548e-05,-0.00010262436990160495,0.07748393714427948,0.3645201623439789,0.12389898300170898,0.00011040229583159089
1789488996,858699693,19.772153854370117,-286.04791259765625,-2.9080657958984375,8.877223990566563e-06,0.0006060703308321536,-0.9944434762001038,-0.10527034848928452,0.015054739080369473,-0.020561521872878075,9.79988956451416,5.0649006880121306e-05,-8.530212653568015e-05,0.07813537865877151,0.36530622839927673,0.12266217917203903,0.00010579133231658489
1789488996,871987543,19.759374618530273,-286.0492858886719,-2.9080657958984375,8.092177267826628e-06,0.0006059502484276891,-0.994581401348114,-0.10395915806293488,0.01194131001830101,-0.022411249577999115,9.799996376037598,3.5003864468308166e-05,-8.945853187469766e-05,0.07877150923013687,0.36598798632621765,0.12135347723960876,0.00010468916298123077
1789488996,885281292,19.746591567993164,-286.0506896972656,-2.9080657958984375,7.250570888572838e-06,0.0006063105538487434,-0.994718611240387,-0.1026376262307167,0.008739589713513851,-0.02346855401992798,9.800015449523926,5.240542577666929e-07,-9.75612856564112e-05,0.07939231395721436,0.3665621280670166,0.12000000476837158,0.00010422788182040676
1789488996,899198583,19.733808517456055,-286.0520324707031,-2.9080657958984375,6.375598331942456e-06,0.0006069340743124485,-0.9948551058769226,-0.1013060063123703,0.005552557297050953,-0.02420845255255699,9.80000114440918,-2.2560589059139602e-05,-0.00010315587860532105,0.07999777048826218,0.3670288324356079,0.1186130940914154,0.00010334676335332915
1789488996,913940644,19.72102928161621,-286.05340576171875,-2.9080657958984375,5.486906957230531e-06,0.0006076330901123583,-0.9949908256530762,-0.09996456652879715,0.0024376630317419767,-0.024905381724238396,9.799985885620117,-3.1625218980479985e-05,-0.00010576139902696013,0.08058785647153854,0.36739030480384827,0.11719480156898499,0.00010195690265391022
1789488996,927207544,19.708255767822266,-286.0547180175781,-2.9080657958984375,4.5940341806272045e-06,0.000608315400313586,-0.9951255917549133,-0.09861354529857635,-0.0005953239742666483,-0.02561163157224655,9.799976348876953,-3.212682349840179e-05,-0.00010657207167241722,0.08116254955530167,0.36764901876449585,0.11574531346559525,0.00010023937647929415
1789488996,940453274,19.695491790771484,-286.0560607910156,-2.9080657958984375,3.6995086247770814e-06,0.0006089567905291915,-0.9952594637870789,-0.09725320339202881,-0.0035428290721029043,-0.026351112872362137,9.799972534179688,-2.9859322239644825e-05,-0.00010680447303457186,0.08172183483839035,0.36780768632888794,0.11426397413015366,9.838890400715172e-05
1789488996,954056739,19.682727813720703,-286.0573425292969,-2.9080657958984375,2.867466719180811e-06,0.0006088991067372262,-0.9953923225402832,-0.0958837941288948,-0.0064173415303230286,-0.027070792391896248,9.799972534179688,-2.7320975277689286e-05,-0.00010697098332457244,0.08226568251848221,0.36786848306655884,0.11275187134742737,9.650981519371271e-05
1789488996,967554686,19.669952392578125,-286.05865478515625,-2.9080657958984375,2.0735665202664677e-06,0.0006083930493332446,-0.9955241680145264,-0.09450557827949524,0.014392086304724216,-0.02244408242404461,9.799901008605957,4.729741340270266e-05,-9.299831435782835e-05,0.08279410749673843,0.3686208128929138,0.1113872155547142,9.217746264766902e-05
1789488996,981117822,19.65717124938965,-286.0599365234375,-2.9080657958984375,1.2362612551441998e-06,0.000608289847150445,-0.995654821395874,-0.09311880171298981,0.011227552779018879,-0.02409973554313183,9.799992561340332,3.256757918279618e-05,-9.647598199080676e-05,0.08330706506967545,0.3692658543586731,0.10995858162641525,9.087313083000481e-05
1789488996,994367342,19.64438819885254,-286.0611877441406,-2.9080657958984375,3.5287663990857254e-07,0.0006086246576160192,-0.9957842826843262,-0.09172373265028,0.00800852570682764,-0.025049112737178802,9.800008773803711,8.834430218485068e-07,-0.00010311732330592349,0.08380456268787384,0.36980149149894714,0.1084902361035347,9.011622751131654e-05
1789488997,7362285,19.631603240966797,-286.06243896484375,-2.9080657958984375,-5.571767474066291e-07,0.0006091950926929712,-0.9959125518798828,-0.09032061696052551,0.004815995693206787,-0.025706442072987556,9.799996376037598,-2.0155821403022856e-05,-0.00010765343176899478,0.08428659290075302,0.3702283501625061,0.1069926768541336,8.89895818545483e-05
1789488997,21542423,19.618824005126953,-286.06365966796875,-2.9080657958984375,-1.477865339438722e-06,0.0006098299054428935,-0.9960395097732544,-0.08890971541404724,0.001694159465841949,-0.02630825713276863,9.799983024597168,-2.8072532586520538e-05,-0.00010968907008646056,0.08475315570831299,0.3705485165119171,0.10546838492155075,8.740817429497838e-05
1789488997,35126328,19.60605239868164,-286.0648498535156,-2.9080657958984375,-2.401495066806092e-06,0.0006104459171183407,-0.9961650967597961,-0.08749128133058548,-0.0013440079055726528,-0.026935985311865807,9.79997444152832,-2.84158577414928e-05,-0.00011030807945644483,0.08520424365997314,0.37076467275619507,0.10391701757907867,8.554601663490757e-05
1789488997,48182321,19.593276977539062,-286.0660705566406,-2.9080657958984375,-3.2737223136791727e-06,0.0006104229832999408,-0.9962893128395081,-0.08606557548046112,-0.0043015084229409695,-0.02757509984076023,9.799971580505371,-2.6096995497937314e-05,-0.00011043193808291107,0.08563986420631409,0.37087926268577576,0.10233865678310394,8.357160550076514e-05
1789488997,61178214,19.580488204956055,-286.0672302246094,-2.9080657958984375,-4.114163402846316e-06,0.0006099861930124462,-0.9964120388031006,-0.08463285863399506,0.016537565737962723,-0.02340574562549591,9.799908638000488,4.22590492235031e-05,-9.894359391182661e-05,0.08606002479791641,0.3716854751110077,0.10089366137981415,7.945081597426906e-05
1789488997,73772032,19.567689895629883,-286.0683898925781,-2.9080660343170166,-4.989061380911153e-06,0.0006099071470089257,-0.996533215045929,-0.08319337666034698,0.013265468180179596,-0.024928590282797813,9.799988746643066,2.9197852200013585e-05,-0.00010169895540457219,0.08646471798419952,0.372379869222641,0.09939021617174149,7.796545105520636e-05
1789488997,87703293,19.554887771606445,-286.0695495605469,-2.9080660343170166,-5.900562427996192e-06,0.0006102185579948127,-0.9966529011726379,-0.0817473977804184,0.009960675612092018,-0.02578239142894745,9.800003051757812,8.943741818256967e-07,-0.00010698333790060133,0.08685395866632462,0.3729611039161682,0.09785135090351105,7.696096145082265e-05
1789488997,101194280,19.542083740234375,-286.0706787109375,-2.9080657958984375,-6.833216048107715e-06,0.0006107407389208674,-0.9967709183692932,-0.08029517531394958,0.006694755982607603,-0.02637914940714836,9.799996376037598,-1.7960976038011722e-05,-0.00011058880045311525,0.08722775429487228,0.37343019247055054,0.09628639370203018,7.575978088425472e-05
1789488997,114845655,19.529279708862305,-286.07177734375,-2.9080657958984375,-7.774130608595442e-06,0.0006113197305239737,-0.9968873262405396,-0.07883697003126144,0.0035031854640692472,-0.026930149644613266,9.799982070922852,-2.5121324142673984e-05,-0.0001122037647292018,0.08758612722158432,0.3737894892692566,0.0946974977850914,7.410225953208283e-05
1789488997,127203286,19.516483306884766,-286.0728759765625,-2.9080657958984375,-8.717024684301578e-06,0.0006118793971836567,-0.9970020055770874,-0.07737302780151367,0.00039371661841869354,-0.027492504566907883,9.799970626831055,-2.5327137336716987e-05,-0.00011266039655311033,0.08792909234762192,0.37404149770736694,0.09308483451604843,7.206673035398126e-05
1789488997,140404807,19.503694534301758,-286.073974609375,-2.9080657958984375,-9.660308933234774e-06,0.0006124009378254414,-0.9971149563789368,-0.07590361684560776,-0.0026357495225965977,-0.028063377365469933,9.799969673156738,-2.3092008632374927e-05,-0.00011271256516920403,0.08825665712356567,0.3741888105869293,0.09144860506057739,6.99711381457746e-05
1789488997,153707816,19.490903854370117,-286.07501220703125,-2.9080657958984375,-1.0565030606812797e-05,0.0006123710190877318,-0.9972261190414429,-0.074428990483284,-0.005587412044405937,-0.02863084152340889,9.799969673156738,-2.0891373424092308e-05,-0.0001127580544562079,0.08856885880231857,0.37423381209373474,0.08978939801454544,6.788140308344737e-05
1789488997,166736549,19.47810173034668,-286.0760803222656,-2.9080660343170166,-1.144622547144536e-05,0.0006119892350398004,-0.9973354339599609,-0.07294940203428268,0.015359707176685333,-0.025023961439728737,9.799919128417969,3.80665369448252e-05,-0.00010417910380056128,0.08886570483446121,0.3749730587005615,0.08824649453163147,6.404742453014478e-05
1789488997,180899637,19.46529197692871,-286.07708740234375,-2.9080660343170166,-1.2353420970612206e-05,0.0006119245081208646,-0.997442901134491,-0.07146510481834412,0.012051365338265896,-0.0263262540102005,9.7999849319458,2.6301653633709066e-05,-0.00010627662413753569,0.08914722502231598,0.37559834122657776,0.08665414899587631,6.239169306354597e-05
1789488997,192777535,19.452476501464844,-286.0780944824219,-2.9080660343170166,-1.3287800356920343e-05,0.0006122009363025427,-0.9975484609603882,-0.06997636705636978,0.008742081932723522,-0.02706587314605713,9.800000190734863,1.2407135727698915e-06,-0.00011025618005078286,0.08941344171762466,0.37610939145088196,0.08503185212612152,6.125206709839404e-05
1789488997,206199042,19.43966293334961,-286.0791015625,-2.9080660343170166,-1.423739468009444e-05,0.0006126573425717652,-0.9976520538330078,-0.06848343461751938,0.005479428451508284,-0.027559936046600342,9.799989700317383,-1.5102559700608253e-05,-0.00011289720714557916,0.08966439217329025,0.3765075206756592,0.08338852226734161,5.9777092246804386e-05
1789488997,220015805,19.426849365234375,-286.080078125,-2.9080657958984375,-1.5192566024779808e-05,0.0006131598493084311,-0.9977536797523499,-0.0669865682721138,0.0022921685595065355,-0.028015416115522385,9.799979209899902,-2.1105513951624744e-05,-0.0001140263702836819,0.08990011364221573,0.3767951428890228,0.08172609657049179,5.7946486776927486e-05
1789488997,232854090,19.414045333862305,-286.0810241699219,-2.9080657958984375,-1.614870416233316e-05,0.0006136433221399784,-0.9978532791137695,-0.06548601388931274,-0.0008121529244817793,-0.02848771959543228,9.799972534179688,-2.116675204888452e-05,-0.00011430735321482643,0.09012062102556229,0.37697485089302063,0.08004454523324966,5.5912521929712966e-05
1789488997,245842193,19.401233673095703,-286.08197021484375,-2.9080660343170166,-1.7075259165721945e-05,0.0006136412266641855,-0.9979508519172668,-0.0639820322394371,-0.0038379451725631952,-0.028963804244995117,9.799966812133789,-1.912873995024711e-05,-0.00011428935977164656,0.0903259739279747,0.37704917788505554,0.07834426313638687,5.3678915719501674e-05
1789488997,258224984,19.388410568237305,-286.0828857421875,-2.9080660343170166,-1.798340781533625e-05,0.0006133262068033218,-0.998046338558197,-0.06247488036751747,0.017155030742287636,-0.025845704600214958,9.799925804138184,3.277534051449038e-05,-0.00010775608097901568,0.09051619470119476,0.37781867384910583,0.07674522697925568,5.003036858397536e-05
1789488997,271863409,19.37557601928711,-286.0837707519531,-2.9080660343170166,-1.8910157450591214e-05,0.0006132810958661139,-0.9981397390365601,-0.06096480414271355,0.013751251623034477,-0.02699250355362892,9.7999849319458,2.2805297703598626e-05,-0.00010924223897745833,0.09069132059812546,0.37847036123275757,0.07510317116975784,4.83298790641129e-05
1789488997,285380876,19.36273765563965,-286.08465576171875,-2.9080660343170166,-1.9856359358527698e-05,0.0006135277217254043,-0.9982309937477112,-0.05945206061005592,0.010366751812398434,-0.027629410848021507,9.799992561340332,1.329227188762161e-06,-0.00011210890079382807,0.09085141122341156,0.37900468707084656,0.07343581318855286,4.691279900725931e-05
1789488997,298989131,19.34989356994629,-286.08551025390625,-2.9080660343170166,-2.081319507851731e-05,0.0006139280158095062,-0.9983200430870056,-0.0579368993639946,0.007039137650281191,-0.028057770803570747,9.7999849319458,-1.2720919585262891e-05,-0.00011399101640563458,0.09099650382995605,0.3794233798980713,0.07175081968307495,4.524610631051473e-05
1789488997,311947475,19.337053298950195,-286.08636474609375,-2.9080660343170166,-2.1773485059384257e-05,0.0006143653299659491,-0.9984069466590881,-0.05641957372426987,0.003789762733504176,-0.02844918705523014,9.799976348876953,-1.784181222319603e-05,-0.0001147567672887817,0.09112663567066193,0.37972894310951233,0.07005006074905396,4.330268711782992e-05
1789488997,325032327,19.324216842651367,-286.0871887207031,-2.9080660343170166,-2.2733836885890923e-05,0.0006147836102172732,-0.998491644859314,-0.054900333285331726,0.0006209567072801292,-0.02884414978325367,9.799971580505371,-1.7691878383629955e-05,-0.0001148820374510251,0.09124187380075455,0.3799239695072174,0.06833397597074509,4.12025474361144e-05
1789488997,338302797,19.311386108398438,-286.0880126953125,-2.9080660343170166,-2.3693364710197784e-05,0.0006151691195555031,-0.9985741376876831,-0.05337942764163017,-0.002466401783749461,-0.029248731210827827,9.799969673156738,-1.584596247994341e-05,-0.00011479958629934117,0.0913422554731369,0.38001108169555664,0.06660275906324387,3.904030745616183e-05
1789488997,351391378,19.298555374145508,-286.08880615234375,-2.9080660343170166,-2.463275086483918e-05,0.0006151593988761306,-0.998654305934906,-0.051857106387615204,-0.005477237515151501,-0.02963762730360031,9.799969673156738,-1.394164064549841e-05,-0.00011469819582998753,0.09142784774303436,0.3799927234649658,0.06485742330551147,3.686572381411679e-05
1789488997,365748064,19.285709381103516,-286.0895690917969,-2.9080660343170166,-2.555965693318285e-05,0.0006149006658233702,-0.9987322688102722,-0.05033361539244652,0.015609495341777802,-0.027102485299110413,9.799936294555664,2.8142714654677548e-05,-0.000110333610791713,0.09149868786334991,0.3806720972061157,0.06319568306207657,3.356361776241101e-05
1789488997,379397119,19.272857666015625,-286.0903015136719,-2.9080660343170166,-2.6498360966797918e-05,0.0006148667307570577,-0.9988079071044922,-0.04880920425057411,0.012191126123070717,-0.028028501197695732,9.799979209899902,1.9546561816241592e-05,-0.00011128603364340961,0.09155485033988953,0.3812325894832611,0.061500079929828644,3.166605529258959e-05
1789488997,392520100,19.259998321533203,-286.0910339355469,-2.9080660343170166,-2.744908670138102e-05,0.000615070981439203,-0.9988812804222107,-0.047284118831157684,0.0088120112195611,-0.02853018045425415,9.799985885620117,1.8155038787881494e-06,-0.00011310393165331334,0.09159638732671738,0.3816753923892975,0.05978543683886528,3.000742981384974e-05
1789488997,405626392,19.24713897705078,-286.0917663574219,-2.9080660343170166,-2.8405855118762702e-05,0.0006153979920782149,-0.998952329158783,-0.045758601278066635,0.0054991403594613075,-0.02885734662413597,9.799980163574219,-9.59047883952735e-06,-0.00011423850082792342,0.09162336587905884,0.3820025622844696,0.058058276772499084,2.8176555133541115e-05
1789488997,418736534,19.234283447265625,-286.09246826171875,-2.9080660343170166,-2.9363953217398375e-05,0.0006157525931484997,-0.999021053314209,-0.04423290118575096,0.0022644572891294956,-0.029153309762477875,9.79997444152832,-1.35998816404026e-05,-0.000114628674054984,0.09163583815097809,0.3822166621685028,0.056320253759622574,2.61384375335183e-05
1789488997,431807276,19.221431732177734,-286.0931396484375,-2.9080660343170166,-3.0321141821332276e-05,0.0006160888588055968,-0.9990874528884888,-0.04270726069808006,-0.0008885319111868739,-0.029457367956638336,9.799970626831055,-1.3390452295425348e-05,-0.00011460731911938637,0.0916338860988617,0.3823203444480896,0.05457165464758873,2.3984282961464487e-05
1789488997,444328865,19.208576202392578,-286.0937805175781,-2.9080660343170166,-3.1264346034731716e-05,0.0006161007331684232,-0.9991514682769775,-0.04118191823363304,-0.003962060436606407,-0.0297576654702425,9.799969673156738,-1.1688737686199602e-05,-0.00011443854600656778,0.09161756187677383,0.3823161721229553,0.052813105285167694,2.1788197045680135e-05
1789488997,457104891,19.19570541381836,-286.09442138671875,-2.9080660343170166,-3.2198408007388934e-05,0.0006159049225971103,-0.9992131590843201,-0.039657119661569595,0.017132695764303207,-0.02772943302989006,9.799943923950195,2.2738398911315016e-05,-0.00011150085629196838,0.09158694744110107,0.38300976157188416,0.05112253129482269,1.8715740225161426e-05
1789488997,470678307,19.182823181152344,-286.09503173828125,-2.9080660343170166,-3.313890192657709e-05,0.0006158860633149743,-0.9992724657058716,-0.03813309967517853,0.013634219765663147,-0.028473060578107834,9.799976348876953,1.614344546396751e-05,-0.00011198057472938672,0.09154210239648819,0.3835814893245697,0.049405451864004135,1.6717007383704185e-05
1789488997,483450383,19.169937133789062,-286.09564208984375,-2.9080660343170166,-3.4085955121554434e-05,0.0006160569610074162,-0.9993294477462769,-0.03661010041832924,0.010192474350333214,-0.02887772209942341,9.799982070922852,1.9557346604415216e-06,-0.00011301544145680964,0.09148310869932175,0.3840331733226776,0.04767383635044098,1.4910573554516304e-05
1789488997,496989209,19.157045364379883,-286.0962219238281,-2.9080660343170166,-3.5035714972764254e-05,0.0006163245416246355,-0.9993840456008911,-0.03508836030960083,0.006822782568633556,-0.029135040938854218,9.79997730255127,-7.149206339818193e-06,-0.00011360809003235772,0.09141004085540771,0.3843671381473541,0.04593327268958092,1.2976618563698139e-05
1789488997,509217022,19.144155502319336,-286.0967712402344,-2.9080660343170166,-3.5985147405881435e-05,0.0006166108651086688,-0.9994362592697144,-0.033568110316991806,0.0035344487987458706,-0.029363589361310005,9.799972534179688,-1.026593781716656e-05,-0.0001137246290454641,0.09132297337055206,0.38458606600761414,0.044185321778059006,1.0885657502512913e-05
1789488997,522311694,19.131269454956055,-286.0973205566406,-2.9080660343170166,-3.693278995342553e-05,0.0006168779800646007,-0.9994860887527466,-0.03204959258437157,0.00032672713859938085,-0.029587408527731895,9.799970626831055,-9.85688984656008e-06,-0.00011357147741364315,0.09122198820114136,0.38469257950782776,0.04243068769574165,8.707906999916304e-06
1789488997,535454596,19.118391036987305,-286.09783935546875,-2.9080660343170166,-3.787824243772775e-05,0.0006171175627969205,-0.9995335936546326,-0.030533036217093468,-0.002800684655085206,-0.029805094003677368,9.799969673156738,-8.2403148553567e-06,-0.00011332290159771219,0.09110715985298157,0.3846893608570099,0.04067008197307587,6.505911642307183e-06
1789488997,547684829,19.10550880432129,-286.09832763671875,-2.9080660343170166,-3.88151929655578e-05,0.0006171227432787418,-0.9995786547660828,-0.029018674045801163,-0.005849480163305998,-0.0300151240080595,9.799969673156738,-6.734142971254187e-06,-0.00011306912347208709,0.09097857773303986,0.38457897305488586,0.038904253393411636,4.314817942940863e-06
1789488997,560032480,19.092613220214844,-286.09881591796875,-2.9080660343170166,-3.9746206311974674e-05,0.0006169824628159404,-0.9996214509010315,-0.027506737038493156,0.01531490683555603,-0.028566457331180573,9.799951553344727,1.7873231627163477e-05,-0.0001114227416110225,0.09083632379770279,0.38516852259635925,0.03718884289264679,1.5233720205287682e-06
1789488997,573146412,19.079710006713867,-286.0992736816406,-2.9080660343170166,-4.067904956173152e-05,0.0006169724510982633,-0.9996618032455444,-0.025997454300522804,0.011822751723229885,-0.0290884617716074,9.79997444152832,1.279922707908554e-05,-0.000111517590994481,0.09068048745393753,0.3856362998485565,0.03545612469315529,-5.314693112268287e-07
1789488997,585656731,19.066801071166992,-286.0997314453125,-2.9080660343170166,-4.161356628173962e-05,0.0006170982960611582,-0.9996998310089111,-0.02449105493724346,0.008400628343224525,-0.029358992353081703,9.79997730255127,2.462187012497452e-06,-0.00011186292249476537,0.09051115810871124,0.3859845995903015,0.033715106546878815,-2.4671769551787293e-06
1789488997,596343564,19.053890228271484,-286.10015869140625,-2.9080660343170166,-4.25477082899306e-05,0.0006172903231345117,-0.9997355341911316,-0.022987764328718185,0.005056384019553661,-0.029517019167542458,9.799975395202637,-3.977474989369512e-06,-0.00011196299601579085,0.0903284102678299,0.3862159550189972,0.03197017312049866,-4.481027644942515e-06
1789488997,609289728,19.04098129272461,-286.1005554199219,-2.9080660343170166,-4.34799148933962e-05,0.0006174915470182896,-0.9997689127922058,-0.021487805992364883,0.001793380593881011,-0.02965191751718521,9.799971580505371,-6.010328434058465e-06,-0.00011181722220499068,0.09013235569000244,0.38633304834365845,0.03022266924381256,-6.59208217257401e-06
1789488997,621845796,19.028078079223633,-286.1009521484375,-2.9080660343170166,-4.4409425754565746e-05,0.0006176741444505751,-0.9997999668121338,-0.019991405308246613,-0.0013887087116017938,-0.029778191819787025,9.799970626831055,-5.464687546918867e-06,-0.00011153386003570631,0.08992306888103485,0.38633865118026733,0.028473399579524994,-8.758283911447506e-06
1789488997,634711261,19.01518440246582,-286.101318359375,-2.9080660343170166,-4.5336018956732005e-05,0.0006178325857035816,-0.9998286962509155,-0.01849878393113613,-0.004491047002375126,-0.029894916340708733,9.799969673156738,-4.048161827086005e-06,-0.00011119960254291072,0.08970065414905548,0.38623538613319397,0.02672317996621132,-1.0938000741589349e-05
1789488997,646688598,19.002286911010742,-286.1016540527344,-2.9080660343170166,-4.625734072760679e-05,0.000617842364590615,-0.999855101108551,-0.0170101597905159,-0.007514713332056999,-0.030003340914845467,9.799969673156738,-2.756354433586239e-06,-0.00011085823643952608,0.08946520835161209,0.38602587580680847,0.024972764775156975,-1.3105192920193076e-05
1789488997,659232476,18.989377975463867,-286.10198974609375,-2.9080660343170166,-4.717433694167994e-05,0.000617761688772589,-0.9998793005943298,-0.015525752678513527,0.013713977299630642,-0.0291255172342062,9.799959182739258,1.2515422895376105e-05,-0.0001100064764614217,0.08921682089567184,0.38651856780052185,0.02325541339814663,-1.563290788908489e-05
1789488997,671222353,18.976463317871094,-286.102294921875,-2.9080660343170166,-4.808971789316274e-05,0.0006177610484883189,-0.9999011754989624,-0.014045778661966324,0.010234956629574299,-0.02943064644932747,9.799972534179688,9.309217603004072e-06,-0.00010978790669469163,0.0889556035399437,0.3868899941444397,0.02152971550822258,-1.7727163140079938e-05
1789488997,684122087,18.963544845581055,-286.1025695800781,-2.9080660343170166,-4.900326894130558e-05,0.0006178414914757013,-0.9999207854270935,-0.012570452876389027,0.006834936328232288,-0.029572483152151108,9.79997444152832,2.9612481284857495e-06,-0.00010963743989123031,0.0886816531419754,0.38714277744293213,0.01980169676244259,-1.9751292711589485e-05
1789488997,696023394,18.950624465942383,-286.10284423828125,-2.9080660343170166,-4.991415698896162e-05,0.0006179570336826146,-0.9999381899833679,-0.011099988594651222,0.0035164549481123686,-0.0296360794454813,9.799972534179688,-8.085962122095225e-07,-0.0001093836544896476,0.08839506655931473,0.3872796595096588,0.01807454042136669,-2.181571653636638e-05
1789488997,709008927,18.937707901000977,-286.10308837890625,-2.9080660343170166,-5.082180359750055e-05,0.0006180721684359014,-0.9999533891677856,-0.009634597226977348,0.0002796463668346405,-0.02967284992337227,9.799971580505371,-1.6819222992126015e-06,-0.0001090343575924635,0.08809594810009003,0.3873033821582794,0.0163496732711792,-2.3924827473820187e-05
1789488997,721545747,18.92479705810547,-286.1033020019531,-2.9080660343170166,-5.172591772861779e-05,0.000618170655798167,-0.9999663829803467,-0.008174486458301544,-0.0028764691669493914,-0.029706720262765884,9.799970626831055,-1.0653126309989602e-06,-0.00010863604256883264,0.08778440952301025,0.3872166574001312,0.014627686701714993,-2.6053396140923724e-05
1789488997,734145035,18.911897659301758,-286.103515625,-2.9080660343170166,-5.262635386316106e-05,0.0006182483630254865,-0.9999772310256958,-0.006719866767525673,-0.005952736362814903,-0.029726453125476837,9.799970626831055,7.501450483005101e-08,-0.00010821489559020847,0.08746055513620377,0.3870221972465515,0.012909523211419582,-2.8179136279504746e-05
1789488997,746707984,18.898996353149414,-286.10369873046875,-2.9080660343170166,-5.3522740927292034e-05,0.0006182612851262093,-0.999985933303833,-0.005270941648632288,-0.008950789459049702,-0.029728418216109276,9.799970626831055,1.2234064570293413e-06,-0.0001077818451449275,0.08712448924779892,0.3867226541042328,0.011196233332157135,-3.0286077162600122e-05
1789488997,759241623,18.886085510253906,-286.1038818359375,-2.9080660343170166,-5.441514804260805e-05,0.000618238584138453,-0.9999924898147583,-0.003827915759757161,0.012322556227445602,-0.029412338510155678,9.799965858459473,7.27823226043256e-06,-0.00010727781045716256,0.08677632361650467,0.3871271312236786,0.009498833678662777,-3.256157651776448e-05
1789488997,771698283,18.873167037963867,-286.1040344238281,-2.9080660343170166,-5.5303786211879924e-05,0.0006182469660416245,-0.9999969601631165,-0.002390991197898984,0.008863499388098717,-0.029505213722586632,9.799970626831055,5.87748172620195e-06,-0.00010684518929338083,0.08641617000102997,0.38741129636764526,0.007801785599440336,-3.466661655693315e-05
1789488997,783655919,18.860246658325195,-286.1041564941406,-2.9080660343170166,-5.6188484450103715e-05,0.00061828299658373,-0.9999993443489075,-0.0009603677899576724,0.005488118622452021,-0.02952076867222786,9.799971580505371,3.428702484598034e-06,-0.00010640054097166285,0.08604414016008377,0.38757795095443726,0.006108196452260017,-3.67295288015157e-05
1789488997,796038910,18.847326278686523,-286.1042785644531,-2.9080660343170166,5.706906085833907e-05,-0.0006183251971378922,0.9999997019767761,-0.0004637566744349897,0.0021954148542135954,-0.029491158202290535,9.799971580505371,2.2617541617364623e-06,-0.00010592993930913508,0.08566035330295563,0.3876299262046814,0.004420086275786161,-3.8800375477876514e-05
1789488997,809017084,18.83441162109375,-286.1043701171875,-2.9080660343170166,5.7945388107327744e-05,-0.0006183585501275957,0.9999980330467224,-0.0018811860354617238,-0.0010149787412956357,-0.029438793659210205,9.799970626831055,2.3927518668642733e-06,-0.00010544084216235206,0.0852649137377739,0.38757002353668213,0.002738700248301029,-4.087491470272653e-05
1789488997,821552093,18.821502685546875,-286.10443115234375,-2.9080662727355957,5.881737160962075e-05,-0.0006183767691254616,0.9999943971633911,-0.0032917263451963663,-0.0041446080431342125,-0.029378702864050865,9.799970626831055,3.087083769059973e-06,-0.00010493915033293888,0.08485794067382812,0.3874009847640991,0.001064758631400764,-4.29414285463281e-05
1789488997,834297999,18.808605194091797,-286.1044921875,-2.9080662727355957,5.9684913139790297e-05,-0.0006183782243169844,0.9999887943267822,-0.004695185925811529,-0.007194009609520435,-0.02930036373436451,9.799971580505371,3.994415692432085e-06,-0.00010442643542774022,0.08443955332040787,0.38712555170059204,-0.0006006850744597614,-4.498878843151033e-05
1789488997,846376264,18.79570770263672,-286.1045227050781,-2.9080662727355957,6.0547750763362274e-05,-0.0006183966179378331,0.9999812841415405,-0.006091374438256025,-0.010165184736251831,-0.02920307219028473,9.799975395202637,4.91168566441047e-06,-0.00010390243551228195,0.08400987088680267,0.3867464065551758,-0.00225656945258379,-4.690017885877751e-05
1789488997,859325548,18.782800674438477,-286.10455322265625,-2.9080662727355957,6.140577170299366e-05,-0.000618431658949703,0.9999718070030212,-0.007480104453861713,0.011124484241008759,-0.029424870386719704,9.799973487854004,2.0527349988697097e-06,-0.00010332692909287289,0.08356902003288269,0.38707229495048523,-0.003913092892616987,-4.887463364866562e-05
1789488997,872114574,18.769887924194336,-286.10455322265625,-2.9080662727355957,6.225908873602748e-05,-0.0006184495287016034,0.9999605417251587,-0.008861190639436245,0.007691490929573774,-0.029307134449481964,9.799970626831055,2.4751864202698926e-06,-0.00010277401452185586,0.08311711251735687,0.3872792422771454,-0.005560752470046282,-5.092123683425598e-05
1789488997,884939739,18.756973266601562,-286.1045227050781,-2.9080662727355957,6.310766184469685e-05,-0.0006184430094435811,0.9999474287033081,-0.010234449058771133,0.004342460539191961,-0.02919725701212883,9.799970626831055,3.850019311357755e-06,-0.00010222427226835862,0.08265427500009537,0.3873700499534607,-0.007199340499937534,-5.2965315262554213e-05
1789488997,897023884,18.74405860900879,-286.1044921875,-2.9080662727355957,6.395138916559517e-05,-0.0006184147205203772,0.9999325275421143,-0.011599699035286903,0.0010766997002065182,-0.029075412079691887,9.799970626831055,5.209777555137407e-06,-0.00010166472929995507,0.08218062669038773,0.38734760880470276,-0.008828009478747845,-5.4998567065922543e-05
1789488997,910490131,18.731151580810547,-286.10443115234375,-2.9080662727355957,6.479013245552778e-05,-0.0006183698424138129,0.9999158382415771,-0.012956761755049229,-0.002106771804392338,-0.028935622423887253,9.799971580505371,6.296403171290876e-06,-0.00010108986316481605,0.08169630169868469,0.3872147500514984,-0.010445722378790379,-5.7004333939403296e-05
1789488997,923734091,18.718252182006836,-286.1043395996094,-2.9080662727355957,6.562376802321523e-05,-0.0006183116347528994,0.9998974800109863,-0.014305459335446358,-0.0052095637656748295,-0.028784260153770447,9.799971580505371,7.0451887950184755e-06,-0.00010049674892798066,0.08120141178369522,0.3869742155075073,-0.012051669880747795,-5.897975279367529e-05
1789488997,937164569,18.70536231994629,-286.104248046875,-2.9080662727355957,6.645218672929332e-05,-0.0006182406796142459,0.999877393245697,-0.015645617619156837,-0.008231600746512413,-0.028611617162823677,9.799972534179688,7.710873433097731e-06,-9.989063983084634e-05,0.08069609850645065,0.38662880659103394,-0.013644727878272533,-6.092175317462534e-05
1789488997,950155322,18.692474365234375,-286.1041259765625,-2.9080662727355957,6.72735768603161e-05,-0.0006182654178701341,0.9998556971549988,-0.016977064311504364,-0.011174897663295269,-0.028419846668839455,9.799972534179688,8.39423228171654e-06,-9.927425708156079e-05,0.08018048107624054,0.3861812651157379,-0.01522386260330677,-6.284255505306646e-05
1789488997,963146325,18.67957878112793,-286.10400390625,-2.9080662727355957,6.808828038629144e-05,-0.0006183568621054292,0.9998323321342468,-0.018299628049135208,0.010142587125301361,-0.029158810153603554,9.799976348876953,-3.0224416605051374e-06,-9.825357847148553e-05,0.07965469360351562,0.38644033670425415,-0.01681964285671711,-6.464463513111696e-05
1789488997,975245390,18.666675567626953,-286.1038513183594,-2.9080662727355957,6.889845099067315e-05,-0.000618384568952024,0.9998074769973755,-0.019613143056631088,0.0067403363063931465,-0.028840119019150734,9.799969673156738,-8.304257335112197e-07,-9.766907169250771e-05,0.07911886274814606,0.3865821063518524,-0.018398523330688477,-6.666317494818941e-05
1789488997,988318972,18.65377426147461,-286.10369873046875,-2.9080662727355957,6.970427057240158e-05,-0.0006183380028232932,0.9997810125350952,-0.020917441695928574,0.0034192134626209736,-0.02861149236559868,9.799968719482422,4.2227552512486e-06,-9.718634828459471e-05,0.07857311517000198,0.3866093158721924,-0.019963102415204048,-6.869313801871613e-05
1789488998,791582,18.640872955322266,-286.1034851074219,-2.9080662727355957,7.050517160678282e-05,-0.0006182441138662398,0.9997530579566956,-0.02221236191689968,0.00017957555246539414,-0.028402943164110184,9.799969673156738,7.998697583389003e-06,-9.665320249041542e-05,0.07801758497953415,0.38652482628822327,-0.021513668820261955,-7.067982369335368e-05
1789488998,13824975,18.62797737121582,-286.1033020019531,-2.9080662727355957,7.130060839699581e-05,-0.0006181261269375682,0.9997236728668213,-0.023497743532061577,-0.0029773733112961054,-0.028189687058329582,9.799971580505371,9.867506378213875e-06,-9.603600483387709e-05,0.0774524137377739,0.3863314688205719,-0.023049678653478622,-7.259374251589179e-05
1789488998,25833000,18.61509132385254,-286.1030578613281,-2.9080662727355957,7.209020986920223e-05,-0.0006179965566843748,0.9996929168701172,-0.024773426353931427,-0.0060527934692800045,-0.02794276364147663,9.799973487854004,1.0794014087878168e-05,-9.536906145513058e-05,0.07687772065401077,0.3860320746898651,-0.02456962689757347,-7.445518713211641e-05
1789488998,38209512,18.602216720581055,-286.10284423828125,-2.9080662727355957,7.287382322829217e-05,-0.0006178588955663145,0.9996607303619385,-0.026039253920316696,-0.00904854666441679,-0.027691233903169632,9.799973487854004,1.112585869122995e-05,-9.466446499573067e-05,0.07629364728927612,0.38562941551208496,-0.02607298269867897,-7.627601735293865e-05
1789488998,50674571,18.589344024658203,-286.1025695800781,-2.9080662727355957,7.364662451436743e-05,-0.0006178923649713397,0.9996272325515747,-0.027295073494315147,-0.011964453384280205,-0.027409955859184265,9.79997444152832,1.1585188985918649e-05,-9.395599772688001e-05,0.07570033520460129,0.3851262331008911,-0.02755838818848133,-7.807354268152267e-05
1789488998,62888545,18.576461791992188,-286.102294921875,-2.9080662727355957,7.441001798724756e-05,-0.0006180399213917553,0.9995924234390259,-0.028540734201669693,0.009326120838522911,-0.02864641137421131,9.799980163574219,-8.004099072422832e-06,-9.216910984832793e-05,0.07509791105985641,0.38532957434654236,-0.029075969010591507,-7.965933764353395e-05
1789488998,75203476,18.563575744628906,-286.10198974609375,-2.9080662727355957,7.517007179558277e-05,-0.0006180785712786019,0.9995564222335815,-0.029776085168123245,0.005959684960544109,-0.028136761859059334,9.799969673156738,-4.071239345648792e-06,-9.163458889815956e-05,0.07448651641607285,0.38541749119758606,-0.030569113790988922,-8.159087155945599e-05
1789488998,87077454,18.550689697265625,-286.1016845703125,-2.9080662727355957,7.59272079449147e-05,-0.0006179949268698692,0.9995191693305969,-0.031000979244709015,0.0026673818938434124,-0.027796417474746704,9.799968719482422,4.528649697022047e-06,-9.13709809537977e-05,0.07386628538370132,0.38539260625839233,-0.032043129205703735,-8.355564204975963e-05
1789488998,99857680,18.537805557250977,-286.1013488769531,-2.9080662727355957,7.667993486393243e-05,-0.0006178387557156384,0.9994807839393616,-0.03221527487039566,-0.0005450359312817454,-0.02750706858932972,9.799970626831055,1.0614026905386709e-05,-9.096517169382423e-05,0.0732373520731926,0.38525769114494324,-0.033499401062726974,-8.544998127035797e-05
1789488998,112027534,18.524927139282227,-286.10101318359375,-2.9080662727355957,7.74268846726045e-05,-0.0006176528986543417,0.9994412660598755,-0.03341882675886154,-0.0036757418420165777,-0.027217436581850052,9.799972534179688,1.3327362466952763e-05,-9.035076800500974e-05,0.0725998654961586,0.3850155770778656,-0.03493759036064148,-8.724903455004096e-05
1789488998,124252367,18.51205825805664,-286.10064697265625,-2.9080662727355957,7.816731522325426e-05,-0.0006174584268592298,0.9994006752967834,-0.034611500799655914,-0.006724380888044834,-0.026899198070168495,9.79997444152832,1.41540131153306e-05,-8.960899140220135e-05,0.07195396721363068,0.38466909527778625,-0.036356400698423386,-8.898363739717752e-05
1789488998,137457297,18.49920082092285,-286.10028076171875,-2.9080662727355957,7.890098640928045e-05,-0.0006172603461891413,0.9993590116500854,-0.035793155431747437,-0.009692749939858913,-0.026563752442598343,9.799975395202637,1.4266422112996224e-05,-8.881070971256122e-05,0.07129978388547897,0.38422104716300964,-0.03775492310523987,-9.066818165592849e-05
1789488998,150739307,18.486347198486328,-286.0998840332031,-2.9080662727355957,7.961894152686e-05,-0.0006173038855195045,0.999316394329071,-0.036963656544685364,-0.012581712566316128,-0.02620822936296463,9.799976348876953,1.4431679119297769e-05,-8.800671639619395e-05,0.07063746452331543,0.3836742341518402,-0.03913215547800064,-9.231472358806059e-05
1789488998,162657174,18.47348403930664,-286.0994567871094,-2.9080662727355957,8.032409095903859e-05,-0.000617506040725857,0.999272882938385,-0.03812287002801895,0.008735141716897488,-0.027906088158488274,9.799983978271484,-1.2719545338768512e-05,-8.520449046045542e-05,0.06996716558933258,0.3838355839252472,-0.04055607691407204,-9.368854807689786e-05
1789488998,174478102,18.460617065429688,-286.0990295410156,-2.9080662727355957,8.102790161501616e-05,-0.000617557147052139,0.9992284178733826,-0.03927067294716835,0.005405768286436796,-0.027226833626627922,9.799970626831055,-7.225227363960585e-06,-8.47823393996805e-05,0.06928899884223938,0.38388359546661377,-0.04194890707731247,-9.550581307848915e-05
1789488998,186827834,18.447750091552734,-286.0986022949219,-2.9080662727355957,8.173105015885085e-05,-0.0006174414302222431,0.9991831183433533,-0.040406931191682816,0.0021422228310257196,-0.026781318709254265,9.799968719482422,4.727475698018679e-06,-8.486371370963752e-05,0.06860312074422836,0.3838205635547638,-0.04331817105412483,-9.738279914017767e-05
1789488998,198787010,18.434885025024414,-286.09814453125,-2.9080662727355957,8.243074989877641e-05,-0.0006172308349050581,0.9991369843482971,-0.0415315255522728,-0.0010456948075443506,-0.026425300166010857,9.799971580505371,1.2892692211607937e-05,-8.466119470540434e-05,0.06790968030691147,0.38364914059638977,-0.04466661065816879,-9.915593545883894e-05
1789488998,210712517,18.422027587890625,-286.09765625,-2.9080662727355957,8.312453428516164e-05,-0.0006169855478219688,0.9990901350975037,-0.042644333094358444,-0.004152402747422457,-0.02607213892042637,9.79997444152832,1.6316022083628923e-05,-8.407929999521002e-05,0.06720881909132004,0.38337215781211853,-0.045994047075510025,-0.00010081917571369559
1789488998,223053358,18.4091796875,-286.09716796875,-2.9080662727355957,8.381121006095782e-05,-0.0006167331011965871,0.9990425109863281,-0.04374523088335991,-0.00717654125764966,-0.025686856359243393,9.799976348876953,1.7113681678893045e-05,-8.327516115969047e-05,0.06650067865848541,0.3829924762248993,-0.047299109399318695,-0.00010239891707897186
1789488998,236590005,18.396343231201172,-286.0966796875,-2.9080662727355957,8.449041342828423e-05,-0.0006164803635329008,0.9989942312240601,-0.04483410343527794,-0.01011891569942236,-0.025273526087403297,9.79997730255127,1.709699245111551e-05,-8.239395538112149e-05,0.06578540802001953,0.3825129270553589,-0.048580560833215714,-0.00010393181582912803
1789488998,249028095,18.38351058959961,-286.09613037109375,-2.9080662727355957,8.514819637639448e-05,-0.0006165346130728722,0.9989453554153442,-0.04591083526611328,-0.012982664629817009,-0.02485024183988571,9.799978256225586,1.7020691302604973e-05,-8.149923814926296e-05,0.06506314873695374,0.381936252117157,-0.049837782979011536,-0.00010541556548560038
1789488998,261061170,18.370668411254883,-286.0956115722656,-2.9080662727355957,8.578936103731394e-05,-0.000616787641774863,0.9988958835601807,-0.04697531834244728,0.008279766887426376,-0.026977531611919403,9.799986839294434,-1.7135283997049555e-05,-7.749686483293772e-05,0.06433405727148056,0.38206684589385986,-0.051155317574739456,-0.00010659913823474199
1789488998,273261394,18.35782241821289,-286.0950622558594,-2.9080662727355957,8.643175533507019e-05,-0.000616851553786546,0.9988458156585693,-0.048027437180280685,0.004990466870367527,-0.026132766157388687,9.799971580505371,-1.0057541658170521e-05,-7.725129398750141e-05,0.06359825283288956,0.38208624720573425,-0.05243542417883873,-0.00010829834354808554
1789488998,286762971,18.34497833251953,-286.094482421875,-2.9080662727355957,8.707630331628025e-05,-0.0006167092942632735,0.9987952709197998,-0.049067091196775436,0.0017544366419315338,-0.025608127936720848,9.799969673156738,4.761278887599474e-06,-7.774989353492856e-05,0.06285590678453445,0.38199636340141296,-0.05368856340646744,-0.00011005279520759359
1789488998,300023530,18.332136154174805,-286.0939025878906,-2.9080662727355957,8.771879220148548e-05,-0.0006164499209262431,0.9987443089485168,-0.05009416863322258,-0.001409339252859354,-0.02518870122730732,9.799972534179688,1.4843138160358649e-05,-7.78108587837778e-05,0.0621071495115757,0.38179975748062134,-0.0549180693924427,-0.0001116866260417737
1789488998,312809186,18.319299697875977,-286.0932922363281,-2.9080662727355957,8.835545304464176e-05,-0.0006161498022265732,0.9986929297447205,-0.051108572632074356,-0.004491345025599003,-0.02476835995912552,9.799975395202637,1.908881495182868e-05,-7.73051506257616e-05,0.061352141201496124,0.3814992308616638,-0.05612369626760483,-0.00011319580517010763
1789488998,325134208,18.306474685668945,-286.0926818847656,-2.9080662727355957,8.898442320059985e-05,-0.000615845201537013,0.9986411333084106,-0.052110206335783005,-0.00749120581895113,-0.02432330511510372,9.79997730255127,1.987104224099312e-05,-7.6449585321825e-05,0.06059102714061737,0.3810976445674896,-0.05730436369776726,-0.00011462027032393962
1789488998,337684657,18.29366111755371,-286.0920715332031,-2.9080662727355957,8.960522245615721e-05,-0.0006155446171760559,0.998589038848877,-0.05309896543622017,-0.010409283451735973,-0.023847077041864395,9.799979209899902,1.959005749085918e-05,-7.547869608970359e-05,0.05982394888997078,0.380597859621048,-0.05845877155661583,-0.00011598747369134799
1789488998,349763882,18.280851364135742,-286.0914306640625,-2.9080662727355957,9.019838034873828e-05,-0.0006156109739094973,0.9985367059707642,-0.05407475680112839,-0.013248320668935776,-0.023360801860690117,9.799980163574219,1.9278280888102017e-05,-7.449736585840583e-05,0.05905105918645859,0.3800026476383209,-0.059586334973573685,-0.0001173010459751822
1789488998,363578764,18.26803207397461,-286.0907897949219,-2.9080662727355957,9.077075810637325e-05,-0.0006159144104458392,0.9984840750694275,-0.055037494748830795,0.007992910221219063,-0.025882354006171227,9.799989700317383,-2.1263209418975748e-05,-6.918152212165296e-05,0.05827251449227333,0.3801147937774658,-0.06078684329986572,-0.00011829915456473827
1789488998,375827607,18.255210876464844,-286.0901184082031,-2.9080662727355957,9.134740685112774e-05,-0.0006159935146570206,0.9984313249588013,-0.05598708614706993,0.0047420719638466835,-0.024902217090129852,9.799972534179688,-1.291218723054044e-05,-6.913404649822041e-05,0.057488441467285156,0.38011786341667175,-0.06194474548101425,-0.00011985420132987201
1789488998,388200988,18.242387771606445,-286.08941650390625,-2.9080662727355957,9.192955621983856e-05,-0.0006158282049000263,0.998378336429596,-0.05692344158887863,0.0015332202892750502,-0.02429511956870556,9.799970626831055,4.708726919488981e-06,-7.01291864970699e-05,0.0566989965736866,0.3800134062767029,-0.0630723387002945,-0.00012145976506872103
1789488998,400248484,18.229570388793945,-286.0887451171875,-2.9080662727355957,9.251127630705014e-05,-0.0006155259325169027,0.9983252882957458,-0.05784647911787033,-0.0016076938482001424,-0.023819005116820335,9.799973487854004,1.6615716958767734e-05,-7.050388376228511e-05,0.0559043362736702,0.37980377674102783,-0.0641738772392273,-0.00012295189662836492
1789488998,412455297,18.216758728027344,-286.0880432128906,-2.9080662727355957,9.308730659540743e-05,-0.0006151791312731802,0.998272180557251,-0.05875612050294876,-0.004668477922677994,-0.023345891386270523,9.79997730255127,2.151062108168844e-05,-7.008696411503479e-05,0.05510460585355759,0.37949177622795105,-0.06524930149316788,-0.00012429803609848022
1789488998,424964717,18.203956604003906,-286.0873107910156,-2.9080662727355957,9.365504956804216e-05,-0.0006148317479528487,0.9982190132141113,-0.05965228006243706,-0.007646725047379732,-0.022854093462228775,9.799979209899902,2.2163558242027648e-05,-6.917681457707658e-05,0.05429995059967041,0.37908023595809937,-0.06629777699708939,-0.00012554840941447765
1789488998,437754922,18.1911678314209,-286.0865783691406,-2.9080662727355957,9.421398135600612e-05,-0.0006144921062514186,0.9981659054756165,-0.06053488701581955,-0.010542573407292366,-0.02232779562473297,9.799981117248535,2.1575100618065335e-05,-6.811492494307458e-05,0.0534905269742012,0.3785720765590668,-0.06731793284416199,-0.0001267392945010215
1789488998,450086504,18.178380966186523,-286.0858459472656,-2.908066511154175,9.473899262957275e-05,-0.00061457185074687,0.9981127977371216,-0.06140386313199997,-0.01335891429334879,-0.021782899275422096,9.799982070922852,2.1142946934560314e-05,-6.706577551085502e-05,0.052676476538181305,0.37796998023986816,-0.06830893456935883,-0.00012787968444172293
1789488998,462672082,18.165586471557617,-286.0850830078125,-2.9080662727355957,9.523907647235319e-05,-0.0006149218534119427,0.9980598092079163,-0.062259137630462646,0.007865129970014095,-0.024658789858222008,9.799991607666016,-2.5039598767762072e-05,-6.040369044058025e-05,0.05185796320438385,0.378075510263443,-0.06938434392213821,-0.00012871017679572105
1789488998,475650186,18.152790069580078,-286.0843200683594,-2.9080662727355957,9.574672003509477e-05,-0.0006150152767077088,0.9980069994926453,-0.06310064345598221,0.004650832153856754,-0.02355732023715973,9.799978256225586,-1.5488201825064607e-05,-6.058325379854068e-05,0.05103510990738869,0.3780739903450012,-0.07041260600090027,-0.00012998748570680618
1789488998,488403152,18.139991760253906,-286.0835266113281,-2.9080662727355957,9.626341488910839e-05,-0.0006148307584226131,0.9979543089866638,-0.06392831355333328,0.001467473921366036,-0.022875841706991196,9.799970626831055,4.673357125284383e-06,-6.211112486198545e-05,0.05020807683467865,0.3779665529727936,-0.07140763103961945,-0.00013149484584573656
1789488998,500498367,18.127197265625,-286.0827331542969,-2.908066511154175,9.678134665591642e-05,-0.000614493212196976,0.9979018568992615,-0.0647420808672905,-0.0016541006043553352,-0.0223570317029953,9.79997444152832,1.8098744476446882e-05,-6.280796515056863e-05,0.049377016723155975,0.37775537371635437,-0.07237480580806732,-0.00013285086606629193
1789488998,512798569,18.114410400390625,-286.0819396972656,-2.908066511154175,9.729384328238666e-05,-0.0006141071207821369,0.9978496432304382,-0.06554188579320908,-0.0046960883773863316,-0.021843452006578445,9.799978256225586,2.346718611079268e-05,-6.248030695132911e-05,0.0485420785844326,0.37744319438934326,-0.07331418991088867,-0.00013404455967247486
1789488998,524861964,18.101633071899414,-286.08111572265625,-2.908066511154175,9.779764513950795e-05,-0.0006137224263511598,0.9977977275848389,-0.06632767617702484,-0.007654559798538685,-0.021300058811903,9.7999849319458,2.4168302843463607e-05,-6.154586299089715e-05,0.04770341143012047,0.37703290581703186,-0.07422462850809097,-0.00013501470675691962
1789488998,537514182,18.088869094848633,-286.0802917480469,-2.908066511154175,9.82920391834341e-05,-0.0006133495480753481,0.9977461099624634,-0.06709937751293182,-0.010530954226851463,-0.020730536431074142,9.7999849319458,2.3342996428254992e-05,-6.040632797521539e-05,0.046861160546541214,0.376527339220047,-0.07510505616664886,-0.00013596923963632435
1789488998,550837491,18.076107025146484,-286.0794677734375,-2.908066511154175,9.874625538941473e-05,-0.000613443844486028,0.9976948499679565,-0.06785695254802704,-0.01332775317132473,-0.0201418474316597,9.7999849319458,2.2682590497424826e-05,-5.928409518674016e-05,0.046015478670597076,0.3759292662143707,-0.07595466822385788,-0.00013690376363229007
1789488998,563398349,18.063339233398438,-286.07861328125,-2.908066511154175,9.917153511196375e-05,-0.0006138377357274294,0.9976440072059631,-0.06860034912824631,0.0078585185110569,-0.023333242163062096,9.799994468688965,-2.8525777452159673e-05,-5.1291346608195454e-05,0.04516652598977089,0.3760382831096649,-0.07689900696277618,-0.00013754377141594887
1789488998,576519331,18.050565719604492,-286.0777587890625,-2.908066511154175,9.960775059880689e-05,-0.000613946293015033,0.9975936412811279,-0.06932950764894485,0.004679206293076277,-0.02212325483560562,9.799976348876953,-1.7851643860922195e-05,-5.171604789211415e-05,0.044314414262771606,0.37604209780693054,-0.0777922198176384,-0.00013876341108698398
1789488998,590140696,18.037792205810547,-286.0768737792969,-2.908066511154175,0.00010005658987211064,-0.0006137472810223699,0.9975436925888062,-0.0700443908572197,0.0015186803648248315,-0.021383484825491905,9.79997444152832,4.505982815317111e-06,-5.3775158448843285e-05,0.04345931485295296,0.3759414851665497,-0.07864996045827866,-0.00014004349941387773
1789488998,602205891,18.0250244140625,-286.07598876953125,-2.908066511154175,0.00010050843411590904,-0.0006133802817203104,0.9974942207336426,-0.07074494659900665,-0.0015860024141147733,-0.020825926214456558,9.79997730255127,1.9313587472424842e-05,-5.480430627358146e-05,0.04260137304663658,0.37573838233947754,-0.07947831600904465,-0.00014119654952082783
1789488998,615071236,18.01226043701172,-286.0751037597656,-2.908066511154175,0.00010095514880958945,-0.0006129618268460035,0.9974453449249268,-0.07143113762140274,-0.00461138179525733,-0.020276643335819244,9.799981117248535,2.5137433112831786e-05,-5.457829320221208e-05,0.041740741580724716,0.3754355311393738,-0.08027750253677368,-0.0001421988126821816
1789488998,627425207,17.999507904052734,-286.07421875,-2.908066511154175,0.00010139280493604019,-0.0006125469226390123,0.9973970055580139,-0.07210292667150497,-0.007552307564765215,-0.019695650786161423,9.799983978271484,2.5790997824515216e-05,-5.3617695812135935e-05,0.040877565741539,0.3750357925891876,-0.08104634284973145,-0.00014308963727671653
1789488998,640296142,17.986770629882812,-286.07330322265625,-2.908066511154175,0.00010182050755247474,-0.0006121479091234505,0.9973492622375488,-0.07276027649641037,-0.010411819443106651,-0.019087053835392,9.7999849319458,2.477811176504474e-05,-5.2414856327231973e-05,0.04001199081540108,0.3745419979095459,-0.08178376406431198,-0.000143919896800071
1789488998,652330488,17.97403335571289,-286.0723876953125,-2.908066511154175,0.00010220218973699957,-0.0006122574559412897,0.9973021745681763,-0.07340314984321594,-0.013192558661103249,-0.018468311056494713,9.799985885620117,2.383927676419262e-05,-5.121942740515806e-05,0.039144162088632584,0.3739568591117859,-0.08248928934335709,-0.00014469862799160182
1789488998,664804268,17.961288452148438,-286.07147216796875,-2.908066511154175,0.00010255133383907378,-0.0006126905791461468,0.9972556829452515,-0.07403150945901871,0.007952048443257809,-0.02192760817706585,9.799995422363281,-3.161869608447887e-05,-4.1990046156570315e-05,0.03827424347400665,0.37407806515693665,-0.08329841494560242,-0.0001451916468795389
1789488998,677143959,17.94853973388672,-286.0705261230469,-2.9080662727355957,0.0001029146442306228,-0.0006128137465566397,0.9972099661827087,-0.07464534044265747,0.004804873839020729,-0.02062324620783329,9.799978256225586,-1.9902794520021416e-05,-4.266753239789978e-05,0.03740234300494194,0.37409576773643494,-0.08405303210020065,-0.00014625955373048782
1789488998,690187152,17.935792922973633,-286.069580078125,-2.908066511154175,0.00010329399083275348,-0.0006126041407696903,0.9971649050712585,-0.07524460554122925,0.0016627047443762422,-0.019841188564896584,9.799976348876953,4.2648889575502835e-06,-4.522343078861013e-05,0.03652862459421158,0.37401026487350464,-0.08477060496807098,-0.0001473674492444843
1789488998,702548313,17.92304801940918,-286.0686340332031,-2.908066511154175,0.0001036780231515877,-0.0006122143240645528,0.9971206188201904,-0.07582928240299225,-0.0014264690689742565,-0.01924869790673256,9.799975395202637,2.0281710021663457e-05,-4.657570389099419e-05,0.035653237253427505,0.3738233745098114,-0.08545751869678497,-0.00014846095291431993
1789488998,715251670,17.910310745239258,-286.06768798828125,-2.908066511154175,0.00010405716602690518,-0.0006117717130109668,0.9970771074295044,-0.07639934867620468,-0.0044380053877830505,-0.01867659203708172,9.7999849319458,2.6411664293846115e-05,-4.644000364351086e-05,0.03477632999420166,0.37353774905204773,-0.08611442893743515,-0.00014922612172085792
1789488998,727605251,17.8975830078125,-286.06671142578125,-2.908066511154175,0.00010442692291690037,-0.0006113356212154031,0.9970343708992004,-0.07695478200912476,-0.007365478668361902,-0.018069928511977196,9.799986839294434,2.695063449209556e-05,-4.54523105872795e-05,0.033898044377565384,0.37315627932548523,-0.08674010634422302,-0.00014991364150773734
1789488998,740917921,17.884868621826172,-286.06573486328125,-2.908066511154175,0.00010478640615474433,-0.0006109173991717398,0.9969925284385681,-0.07749556750059128,-0.010210374370217323,-0.017434539273381233,9.79998779296875,2.5735436793183908e-05,-4.4193195208208635e-05,0.03301852196455002,0.37268176674842834,-0.08733348548412323,-0.00015054717368911952
1789488998,754413977,17.872156143188477,-286.06475830078125,-2.908066511154175,0.0001050947539624758,-0.0006110414396971464,0.9969514608383179,-0.07802169024944305,-0.012975871562957764,-0.016781067475676537,9.799988746643066,2.475825749570504e-05,-4.296923725632951e-05,0.032137904316186905,0.37211698293685913,-0.08789385110139847,-0.0001511336595285684
1789488998,767348651,17.85943603515625,-286.0637512207031,-2.908066511154175,0.00010536731861066073,-0.0006115102441981435,0.9969112873077393,-0.07853313535451889,0.008141843602061272,-0.020473653450608253,9.799996376037598,-3.4310152841499075e-05,-3.262870086473413e-05,0.031256355345249176,0.37225809693336487,-0.0885656550526619,-0.00015146883379202336
1789488998,780274635,17.846712112426758,-286.0627746582031,-2.9080662727355957,0.00010565712727839127,-0.0006116472650319338,0.996872067451477,-0.07902989536523819,0.005021709483116865,-0.019096193835139275,9.799980163574219,-2.1784415366710164e-05,-3.353336433065124e-05,0.03037397749722004,0.37229716777801514,-0.08918040990829468,-0.00015235775208566338
1789488998,792431709,17.833988189697266,-286.061767578125,-2.908066511154175,0.00010596603533485904,-0.0006114307325333357,0.9968337416648865,-0.07951196283102036,0.0018970269011333585,-0.018269088119268417,9.799978256225586,4.06748358727782e-06,-3.656862463685684e-05,0.02949092909693718,0.3722341060638428,-0.0897565558552742,-0.00015329205780290067
1789488998,804441285,17.821269989013672,-286.0607604980469,-2.908066511154175,0.00010628109885146841,-0.0006110250833444297,0.9967963099479675,-0.0799793228507042,-0.0011818122584372759,-0.01766424998641014,9.79997730255127,2.0910896637360565e-05,-3.8187859900062904e-05,0.028607359156012535,0.37207046151161194,-0.09030162543058395,-0.00015420737327076495
1789488998,816152885,17.808555603027344,-286.05975341796875,-2.908066511154175,0.00010659161489456892,-0.0006105650099925697,0.9967598915100098,-0.0804319828748703,-0.004182484466582537,-0.017071131616830826,9.799986839294434,2.7311960366205312e-05,-3.814249430433847e-05,0.0277234073728323,0.3718089163303375,-0.09081604331731796,-0.00015480017464142293
1789488998,828948100,17.795852661132812,-286.0587158203125,-2.908066511154175,0.00010689256305340677,-0.0006101129692979157,0.9967244863510132,-0.08086993545293808,-0.007098028901964426,-0.01644304394721985,9.799988746643066,2.7807469450635836e-05,-3.714732520165853e-05,0.02683921344578266,0.37145236134529114,-0.09129858762025833,-0.00015530404925812036
1789488998,841535069,17.78314781188965,-286.05767822265625,-2.908066511154175,0.00010713796655181795,-0.000610235205385834,0.996690034866333,-0.08129318803548813,-0.009931792505085468,-0.01578567549586296,9.799989700317383,2.6460742446943186e-05,-3.585328158806078e-05,0.025954917073249817,0.37100353837013245,-0.09174821525812149,-0.00015575627912767231
1789488998,853928520,17.77043342590332,-286.0566711425781,-2.908066511154175,0.00010734459647210315,-0.0006107247318141162,0.9966566562652588,-0.08170173317193985,0.01110321469604969,-0.019635213539004326,9.799997329711914,-3.576291419449262e-05,-2.4589891836512834e-05,0.02507067285478115,0.3712582588195801,-0.0923147201538086,-0.000155972084030509
1789488998,865744278,17.75771141052246,-286.05560302734375,-2.9080662727355957,0.00010757031122921035,-0.0006108732777647674,0.9966242909431458,-0.08209558576345444,0.00793138612061739,-0.018190450966358185,9.799981117248535,-2.2979473214945756e-05,-2.561950168455951e-05,0.024186579510569572,0.37140953540802,-0.09282200038433075,-0.00015673681627959013
1789488998,878116779,17.74498748779297,-286.0545654296875,-2.9080662727355957,0.00010781741002574563,-0.0006106541841290891,0.9965929388999939,-0.08247474581003189,0.004745333455502987,-0.01733970269560814,9.799979209899902,3.655764658105909e-06,-2.8951062631676905e-05,0.023302791640162468,0.37145695090293884,-0.09328997880220413,-0.00015755146159790456
1789488998,890762517,17.732261657714844,-286.05352783203125,-2.908066511154175,0.00010807195940287784,-0.0006102375336922705,0.9965627193450928,-0.0828392282128334,0.0016071309801191092,-0.016694840043783188,9.799978256225586,2.135082831955515e-05,-3.0818315281067044e-05,0.022419454529881477,0.3714021146297455,-0.09372568130493164,-0.00015833905490580946
1789488998,903145528,17.719541549682617,-286.0524597167969,-2.908066511154175,0.00010832222324097529,-0.0006097658770158887,0.9965335726737976,-0.08318904787302017,-0.001455576391890645,-0.01608470268547535,9.799983978271484,2.7947828129981644e-05,-3.0847033485770226e-05,0.021536704152822495,0.37124761939048767,-0.09413031488656998,-0.00015890953363850713
1789488998,915723566,17.706829071044922,-286.0514221191406,-2.908066511154175,0.00010856285371119156,-0.000609303533565253,0.9965055584907532,-0.08352421224117279,-0.00443271454423666,-0.015437453053891659,9.799991607666016,2.8340988137642853e-05,-2.98416616715258e-05,0.020654672756791115,0.37099629640579224,-0.09450262784957886,-0.00015923375030979514
1789488998,929016766,17.69412612915039,-286.05035400390625,-2.908066511154175,0.00010879275214392692,-0.0006088639493100345,0.9964786171913147,-0.08384474366903305,-0.007324215490370989,-0.014751745387911797,9.799991607666016,2.6959183742292225e-05,-2.853946170944255e-05,0.01977349817752838,0.3706510663032532,-0.09484127908945084,-0.00015953001275192946
1789488998,941688843,17.681438446044922,-286.0492858886719,-2.908066511154175,0.00010901251516770571,-0.0006084401975385845,0.9964528679847717,-0.08415066450834274,-0.010138336569070816,-0.01406752411276102,9.799991607666016,2.5612431272747926e-05,-2.724426485656295e-05,0.01889331080019474,0.3702145516872406,-0.09514626860618591,-0.00015979999443516135
1789488998,953943946,17.668750762939453,-286.0482177734375,-2.908066511154175,0.00010917432518908754,-0.0006085979985073209,0.9964281916618347,-0.08444198220968246,-0.012875969521701336,-0.013380603864789009,9.799992561340332,2.500121081538964e-05,-2.607520582387224e-05,0.018014244735240936,0.36968934535980225,-0.09541748464107513,-0.00016002924530766904
1789488998,965664825,17.656057357788086,-286.047119140625,-2.908066511154175,0.00010929626296274364,-0.0006091234390623868,0.9964047074317932,-0.0847187265753746,0.008179564960300922,-0.017399363219738007,9.800000190734863,-3.859679782181047e-05,-1.4175177966535557e-05,0.017136450856924057,0.369868665933609,-0.0958113968372345,-0.00016004513599909842
1789488998,978219734,17.643362045288086,-286.0460510253906,-2.908066511154175,0.000109440392407123,-0.0006092850235290825,0.9963824152946472,-0.08498092740774155,0.005105954594910145,-0.01592743583023548,9.799983978271484,-2.4633087377878837e-05,-1.5500287190661766e-05,0.016260018572211266,0.369948148727417,-0.09614516794681549,-0.00016059009067248553
1789488998,990354198,17.630664825439453,-286.04498291015625,-2.908066511154175,0.00010960845975205302,-0.0006090631941333413,0.996361255645752,-0.08522860705852509,0.0020116502419114113,-0.015057683922350407,9.799982070922852,3.49125184584409e-06,-1.9263463400420733e-05,0.0153850968927145,0.36992713809013367,-0.09643907845020294,-0.00016117666382342577
1789488999,2693360,17.61797332763672,-286.04388427734375,-2.908066511154175,0.00010978500358760357,-0.0006086401408538222,0.9963412284851074,-0.08546179533004761,-0.001043106196448207,-0.01443021185696125,9.7999849319458,2.163071076211054e-05,-2.1325467969290912e-05,0.01451182458549738,0.3698069155216217,-0.09670141339302063,-0.00016162570682354271
1789488999,15174700,17.605287551879883,-286.0428161621094,-2.908066511154175,0.00010995754564646631,-0.0006081622559577227,0.9963224530220032,-0.0856805220246315,-0.004022756591439247,-0.01382560096681118,9.799988746643066,2.8242438929737546e-05,-2.1409960027085617e-05,0.013640331104397774,0.36959004402160645,-0.0969330370426178,-0.00016192109615076333
1789488999,28033415,17.592613220214844,-286.0417175292969,-2.908066511154175,0.00011012036702595651,-0.0006076964782550931,0.9963048696517944,-0.08588483184576035,-0.006915469653904438,-0.013174557127058506,9.799991607666016,2.8608688808162697e-05,-2.041998777713161e-05,0.012770741246640682,0.3692794144153595,-0.09713242948055267,-0.00016210130706895143
1789488999,41193806,17.5799503326416,-286.0406188964844,-2.908066511154175,0.00011027237633243203,-0.0006072559626773,0.9962884783744812,-0.08607474714517593,-0.00972770620137453,-0.012503160163760185,9.799993515014648,2.6940106181427836e-05,-1.9080491256318055e-05,0.011903182603418827,0.36887770891189575,-0.09729890525341034,-0.00016221849364228547
1789488999,54497575,17.567291259765625,-286.0395202636719,-2.908066511154175,0.0001103634131141007,-0.0006074209813959897,0.9962732791900635,-0.08625030517578125,-0.012460719794034958,-0.011814907193183899,9.799994468688965,2.5584347895346582e-05,-1.7798120097722858e-05,0.011037780903279781,0.3683876097202301,-0.09743189066648483,-0.00016228877939283848
1789488999,67129293,17.554624557495117,-286.0384216308594,-2.908066511154175,0.00011041291145374998,-0.0006079670274630189,0.996259331703186,-0.08641155809164047,0.008603351190686226,-0.015932463109493256,9.800002098083496,-3.999302498414181e-05,-5.327170129021397e-06,0.01017468236386776,0.3686023950576782,-0.09769120812416077,-0.000162145821377635
1789488999,79483204,17.541955947875977,-286.0373229980469,-2.908066511154175,0.00011048603482777253,-0.0006081419414840639,0.9962465763092041,-0.08655853569507599,0.005541533697396517,-0.014430828392505646,9.799985885620117,-2.5780269425013103e-05,-6.767543254682096e-06,0.009313964284956455,0.3687179386615753,-0.09788959473371506,-0.0001625289733055979
1789488999,91430631,17.529285430908203,-286.0362243652344,-2.908066511154175,0.00011058468226110563,-0.000607924594078213,0.9962350130081177,-0.08669128268957138,0.002451465465128422,-0.013557961210608482,9.799983978271484,2.9239979539852357e-06,-1.0749829925771337e-05,0.008455771952867508,0.3687332272529602,-0.09804823994636536,-0.00016295476234517992
1789488999,104279976,17.516620635986328,-286.0351257324219,-2.908066511154175,0.00011069274478359148,-0.0006075011333450675,0.9962247014045715,-0.08680985122919083,-0.0005998071865178645,-0.012925553135573864,9.799986839294434,2.1516152628464624e-05,-1.2971859177923761e-05,0.007600236218422651,0.36864954233169556,-0.09817541390657425,-0.00016323657473549247
1789488999,116440930,17.50395965576172,-286.0340270996094,-2.908066511154175,0.00011079710384365171,-0.0006070228409953415,0.9962155818939209,-0.08691428601741791,-0.0035767024382948875,-0.012318789027631283,9.7999906539917,2.8286562155699357e-05,-1.3128180398780387e-05,0.006747478153556585,0.36846935749053955,-0.09827210754156113,-0.00016336413682438433
1789488999,128788491,17.49131202697754,-286.0329284667969,-2.908066511154175,0.00011089180770795792,-0.0006065583438612521,0.9962077140808105,-0.0870046392083168,-0.006468184757977724,-0.011674162931740284,9.799993515014648,2.8513071811175905e-05,-1.2140520084358286e-05,0.005897617898881435,0.368195503950119,-0.09833712130784988,-0.0001633903884794563
1789488999,141077723,17.478660583496094,-286.0318298339844,-2.908066511154175,0.00011092372733401135,-0.0006067163194529712,0.9962010383605957,-0.0870809555053711,-0.009278122335672379,-0.010999326594173908,9.799995422363281,2.6786363378050737e-05,-1.0813769222295377e-05,0.005050772801041603,0.36783069372177124,-0.09836946427822113,-0.00016334638348780572
1789488999,153156628,17.465999603271484,-286.03070068359375,-2.9080662727355957,0.0001109127260860987,-0.0006072695832699537,0.9961956143379211,-0.08714329451322556,0.011717111803591251,-0.01516323909163475,9.800002098083496,-4.0311460907105356e-05,2.020192596319248e-06,0.004207083024084568,0.36816850304603577,-0.09853006899356842,-0.00016309585771523416
1789488999,165466560,17.453332901000977,-286.02960205078125,-2.9080662727355957,0.00011092590284533799,-0.0006074509583413601,0.9961913824081421,-0.08719170838594437,0.00858794990926981,-0.01363951712846756,9.799986839294434,-2.6354256988270208e-05,5.76057516354922e-07,0.0033666170202195644,0.3684048056602478,-0.09862924367189407,-0.00016336972475983202
1789488999,177761473,17.440662384033203,-286.02850341796875,-2.9080662727355957,0.00011096539674326777,-0.0006072366377338767,0.9961883425712585,-0.0872262492775917,0.005430541932582855,-0.012745391577482224,9.799981117248535,2.636624685692368e-06,-3.524260137055535e-06,0.0025295140221714973,0.36853864789009094,-0.09868821501731873,-0.0001638024696148932
1789488999,190210873,17.427993774414062,-286.02740478515625,-2.908066511154175,0.0001110147568397224,-0.0006068149232305586,0.9961864948272705,-0.08724699169397354,0.002309707459062338,-0.012106670066714287,9.799985885620117,2.1370500689954497e-05,-5.821625563839916e-06,0.0016958975465968251,0.3685711920261383,-0.09871579706668854,-0.00016403455811087042
1789488999,202265158,17.415328979492188,-286.0262756347656,-2.908066511154175,0.00011106063902843744,-0.0006063389591872692,0.9961858987808228,-0.08725398033857346,-0.0007357219001278281,-0.01149462629109621,9.7999906539917,2.8145184842287563e-05,-6.014248356223106e-06,0.0008658820879645646,0.3685048818588257,-0.09871302545070648,-0.00016408403462264687
1789488999,214504161,17.40266990661621,-286.0251770019531,-2.908066511154175,0.00011109711340395734,-0.0006058767903596163,0.9961864948272705,-0.08724728226661682,-0.003695001592859626,-0.0108450623229146,9.799997329711914,2.8310028937994502e-05,-5.04552463098662e-06,3.9578797441208735e-05,0.3683426082134247,-0.09867873787879944,-0.00016389333177357912
1789488999,226707344,17.39002227783203,-286.0240783691406,-2.908066511154175,0.0001111230521928519,-0.0006054418627172709,0.9961882829666138,-0.08722696453332901,-0.006569582037627697,-0.010157404467463493,9.799997329711914,2.6637024348019622e-05,-3.75778108718805e-06,-0.000782900839112699,0.36808717250823975,-0.09861170500516891,-0.0001636902743484825
1789488999,238993716,17.37738800048828,-286.0229797363281,-2.908066511154175,0.00011113912478322163,-0.0006050270749256015,0.9961912631988525,-0.0871930941939354,-0.009368420578539371,-0.009473457932472229,9.799997329711914,2.506568853277713e-05,-2.4935236524470383e-06,-0.0016014464199543,0.36774110794067383,-0.09851209074258804,-0.00016346413758583367
1789488999,251254499,17.364755630493164,-286.0218811035156,-2.908066511154175,0.00011109405022580177,-0.0006052188109606504,0.996195375919342,-0.08714573830366135,-0.012093115597963333,-0.008798656985163689,9.79999828338623,2.4183718778658658e-05,-1.3565689869210473e-06,-0.0024159476161003113,0.36730682849884033,-0.09838026016950607,-0.0001632075000088662
1789488999,263346824,17.35211753845215,-286.0207824707031,-2.908066511154175,0.00011100769916083664,-0.0006057905848138034,0.996200680732727,-0.08708496391773224,0.008962788619101048,-0.01298649050295353,9.800004959106445,-4.1885719838319346e-05,1.1271476978436112e-05,-0.003226273227483034,0.36757710576057434,-0.09837799519300461,-0.0001627526362426579
1789488999,275653236,17.339475631713867,-286.0196838378906,-2.908066511154175,0.00011094658839283511,-0.0006059822626411915,0.9962071776390076,-0.08701084554195404,0.005912341643124819,-0.011486797593533993,9.799989700317383,-2.7120637241750956e-05,9.640741154726129e-06,-0.00403236411511898,0.3677483797073364,-0.09831544011831284,-0.0001628190220799297
1789488999,287947978,17.326833724975586,-286.0185852050781,-2.908066511154175,0.00011091225314885378,-0.0006057764985598624,0.9962148070335388,-0.08692345768213272,0.002830267185345292,-0.010628458112478256,9.79998779296875,2.082329046970699e-06,5.464785317599308e-06,-0.004834091290831566,0.367819607257843,-0.0982142835855484,-0.00016292389773298055
1789488999,300499767,17.314197540283203,-286.0174865722656,-2.908066511154175,0.00011088803876191378,-0.0006053642719052732,0.9962235689163208,-0.08682286739349365,-0.0002150366926798597,-0.01001528650522232,9.7999906539917,2.0822868464165367e-05,3.129092192466487e-06,-0.005631340201944113,0.3677918612957001,-0.0980830192565918,-0.00016289284394588321
1789488999,312422094,17.301565170288086,-286.0163879394531,-2.908066511154175,0.000110860557470005,-0.0006048994255252182,0.9962334632873535,-0.0867091566324234,-0.003186189802363515,-0.009428736753761768,9.799994468688965,2.7498921554069966e-05,2.9113496111676795e-06,-0.006424006074666977,0.36766761541366577,-0.09792273491621017,-0.0001627134479349479
1789488999,324872884,17.288944244384766,-286.0152893066406,-2.908066511154175,0.00011082386481575668,-0.00060445093549788,0.996244490146637,-0.08658240735530853,-0.006072463467717171,-0.008804560638964176,9.799997329711914,2.7560618036659434e-05,3.849748736683978e-06,-0.007211987394839525,0.36744967103004456,-0.0977322980761528,-0.00016242927813436836
1789488999,337601411,17.276338577270508,-286.01422119140625,-2.908066511154175,0.00011077691306127235,-0.0006040313746780157,0.9962566494941711,-0.08644269406795502,-0.008877852000296116,-0.00815107487142086,9.79999828338623,2.5692692361189984e-05,5.11989810547675e-06,-0.0079951835796237,0.36714065074920654,-0.09751079976558685,-0.00016207947919610888
1789488999,350211799,17.26373291015625,-286.01312255859375,-2.908066511154175,0.00011066904698964208,-0.000604225555434823,0.9962698817253113,-0.08629010617733002,-0.011606737039983273,-0.007492271717637777,9.799999237060547,2.409679291304201e-05,6.335357738862513e-06,-0.008773494511842728,0.3667431175708771,-0.09725815802812576,-0.0001616851077415049
1789488999,362641069,17.25111961364746,-286.01202392578125,-2.908066511154175,0.00011052037007175386,-0.0006048022769391537,0.9962841868400574,-0.0861247107386589,0.009499141946434975,-0.011662312783300877,9.800006866455078,-4.2163246689597145e-05,1.8841308701667003e-05,-0.009546798653900623,0.36705154180526733,-0.0971350222826004,-0.0001610844483366236
1789488999,375298997,17.23850440979004,-286.0109558105469,-2.908066511154175,0.00011039678065571934,-0.0006050008814781904,0.9962995648384094,-0.08594661206007004,0.006443480495363474,-0.010172907263040543,9.7999906539917,-2.7534508262760937e-05,1.721481021377258e-05,-0.010315045714378357,0.3672606647014618,-0.09695235639810562,-0.00016101864457596093
1789488999,387880835,17.225887298583984,-286.0098876953125,-2.908066511154175,0.00011029971210518852,-0.0006048045470379293,0.9963160157203674,-0.08575588464736938,0.0033565398771315813,-0.009325699880719185,9.799988746643066,1.5837930504858377e-06,1.3066362953395583e-05,-0.011078116483986378,0.36736929416656494,-0.09673190116882324,-0.00016099114145617932
1789488999,400134298,17.213275909423828,-286.0087890625,-2.908066511154175,0.00011021267710020766,-0.0006044046021997929,0.9963334798812866,-0.08555261790752411,0.0003054689150303602,-0.008733361028134823,9.799991607666016,2.0134359147050418e-05,1.0757678865047637e-05,-0.011835907585918903,0.3673785626888275,-0.09648248553276062,-0.00016082085494417697
1789488999,412532279,17.200668334960938,-286.0077209472656,-2.908066511154175,0.00011012263712473214,-0.000603953143581748,0.996351957321167,-0.08533690124750137,-0.0026718396693468094,-0.008167000487446785,9.799995422363281,2.6651503503671847e-05,1.05342523966101e-05,-0.012588324025273323,0.3672908842563629,-0.0962052196264267,-0.00016050577687565237
1789488999,424694332,17.188072204589844,-286.00665283203125,-2.908066511154175,0.000110023764136713,-0.0006035185651853681,0.9963714480400085,-0.08510882407426834,-0.005563121289014816,-0.007554979529231787,9.79999828338623,2.6731471734819934e-05,1.141879602073459e-05,-0.013335272669792175,0.3671090602874756,-0.09589871764183044,-0.00016008633247110993
1789488999,436604680,17.17548942565918,-286.005615234375,-2.908066511154175,0.00010991500312229618,-0.0006031141383573413,0.9963919520378113,-0.08486848324537277,-0.008375577628612518,-0.006924170535057783,9.800000190734863,2.4790082534309477e-05,1.2644401067518629e-05,-0.014076665043830872,0.36683568358421326,-0.09556245803833008,-0.00015959919255692512
1789488999,448629865,17.16290855407715,-286.0045471191406,-2.908066511154175,0.00010974772158078849,-0.0006033119861967862,0.9964134693145752,-0.08461596816778183,-0.011111612431704998,-0.006287767551839352,9.80000114440918,2.311860771442298e-05,1.381526544719236e-05,-0.014812410809099674,0.3664732575416565,-0.09519635885953903,-0.00015906646149232984
1789488999,461139935,17.150320053100586,-286.00347900390625,-2.908066511154175,0.0001095413972507231,-0.0006038840510882437,0.9964358806610107,-0.08435137569904327,0.009931514039635658,-0.010374429635703564,9.800008773803711,-4.185220313956961e-05,2.5824896511039697e-05,-0.015542399138212204,0.36681440472602844,-0.09495759755373001,-0.00015831526252441108
1789488999,473503376,17.137725830078125,-286.00244140625,-2.908066511154175,0.00010935936734313145,-0.0006040845182724297,0.9964592456817627,-0.08407481014728546,0.006866131909191608,-0.008921214379370213,9.799992561340332,-2.7426216547610238e-05,2.423069418000523e-05,-0.016266586259007454,0.36705562472343445,-0.09466098248958588,-0.00015811847697477788
1789488999,486327911,17.125133514404297,-286.00140380859375,-2.908066511154175,0.00010920289059868082,-0.000603897962719202,0.996483564376831,-0.08378635346889496,0.003773242235183716,-0.008099867962300777,9.7999906539917,1.158838585979538e-06,2.022724220296368e-05,-0.01698486879467964,0.36719587445259094,-0.09432792663574219,-0.00015795942454133183
1789488999,498481835,17.1125431060791,-286.0003356933594,-2.908066511154175,0.00010905607632594183,-0.0006035129190422595,0.996508777141571,-0.08348611742258072,0.0007167215808294713,-0.0075295474380254745,9.799993515014648,1.930745020217728e-05,1.8004140656557865e-05,-0.017697149887681007,0.36723628640174866,-0.09396716952323914,-0.00015765789430588484
1789488999,511572977,17.099960327148438,-285.9992980957031,-2.908066511154175,0.00010890641715377569,-0.0006030785152688622,0.9965348243713379,-0.0831742063164711,-0.0022651900071650743,-0.006985349580645561,9.799997329711914,2.5619267034926452e-05,1.778565092536155e-05,-0.018403345718979836,0.3671792447566986,-0.09357984364032745,-0.00015721410454716533
1789488999,524521051,17.087387084960938,-285.998291015625,-2.908066511154175,0.00010874839063035324,-0.0006026616902090609,0.9965617656707764,-0.08285070955753326,-0.005162555258721113,-0.006396429147571325,9.799999237060547,2.5628967705415562e-05,1.8624714357429184e-05,-0.01910337619483471,0.36702755093574524,-0.09316461533308029,-0.0001566714490763843
1789488999,536815573,17.074825286865234,-285.99725341796875,-2.908066511154175,0.00010858091263798997,-0.0006022760644555092,0.9965896010398865,-0.08251573890447617,-0.007980645634233952,-0.005790106486529112,9.80000114440918,2.3671211238252e-05,1.9785806216532364e-05,-0.01979716122150421,0.3667837381362915,-0.09272104501724243,-0.00015605833323206753
1789488999,549276303,17.062265396118164,-285.9962158203125,-2.908066511154175,0.00010835811553988606,-0.0006024774047546089,0.9966182112693787,-0.08216939866542816,-0.010724497959017754,-0.0051873172633349895,9.800002098083496,2.1881278371438384e-05,2.0909374143229797e-05,-0.020484620705246925,0.3664502799510956,-0.09224937111139297,-0.00015540324966423213
1789488999,562754180,17.049697875976562,-285.9952087402344,-2.908066511154175,0.00010809864033944905,-0.0006030412041582167,0.9966475963592529,-0.08181178569793701,0.010372349061071873,-0.009162512607872486,9.800009727478027,-4.133740367251448e-05,3.224617466912605e-05,-0.02116565592586994,0.36682185530662537,-0.09190195798873901,-0.00015452194202225655
1789488999,575412468,17.037126541137695,-285.99420166015625,-2.908066511154175,0.000107862229924649,-0.0006032426026649773,0.996677815914154,-0.08144302666187286,0.007292747497558594,-0.007753274403512478,9.799993515014648,-2.7143987608724274e-05,3.070390084758401e-05,-0.021840233355760574,0.36709263920783997,-0.09149868786334991,-0.0001541971432743594
1789488999,587308915,17.024555206298828,-285.9931945800781,-2.908066511154175,0.00010764997568912804,-0.0006030676886439323,0.9967087507247925,-0.08106321096420288,0.004189641680568457,-0.006970267277210951,9.799991607666016,6.476546445810527e-07,2.6922069082502276e-05,-0.02250825986266136,0.36726176738739014,-0.0910608097910881,-0.00015391396300401539
1789488999,599336821,17.011985778808594,-285.9921875,-2.908066511154175,0.00010744688188424334,-0.0006026998162269592,0.996740460395813,-0.08067245781421661,0.0011270594550296664,-0.006423311773687601,9.799994468688965,1.8313468899577856e-05,2.48160522460239e-05,-0.02316965162754059,0.3673304617404938,-0.09059657901525497,-0.0001534965558676049
1789488999,612168626,16.99942398071289,-285.9912109375,-2.908066511154175,0.00010724108869908378,-0.0006022855523042381,0.9967728853225708,-0.08027087897062302,-0.0018615128938108683,-0.0059030624106526375,9.79999828338623,2.4432998543488793e-05,2.460200084897224e-05,-0.023824334144592285,0.3673011362552643,-0.09010716527700424,-0.00015292684838641435
1789488999,625103090,16.98686981201172,-285.990234375,-2.908066511154175,0.0001070273356162943,-0.0006018906133249402,0.9968060255050659,-0.07985857874155045,-0.004767565056681633,-0.005348167382180691,9.80000114440918,2.4289638531627133e-05,2.540237983339466e-05,-0.02447223849594593,0.36717644333839417,-0.0895916000008583,-0.0001522611128166318
1789488999,638609887,16.974328994750977,-285.9892578125,-2.908066511154175,0.00010680477134883404,-0.0006015266990289092,0.9968398213386536,-0.07943568378686905,-0.00759455980733037,-0.004775807727128267,9.800002098083496,2.2252719645621255e-05,2.6500132662476972e-05,-0.025113295763731003,0.36695897579193115,-0.08904945105314255,-0.000151536674820818
1789488999,651988485,16.961788177490234,-285.98828125,-2.908066511154175,0.00010653093340806663,-0.0006017285049892962,0.9968742728233337,-0.07900229841470718,-0.010346594266593456,-0.00419893953949213,9.800003051757812,2.0548095562844537e-05,2.753390981524717e-05,-0.02574743703007698,0.36665117740631104,-0.08848072588443756,-0.0001507767738075927
1789488999,665578910,16.949241638183594,-285.9873046875,-2.908066511154175,0.00010622315312502906,-0.0006022793822921813,0.9969093203544617,-0.0785585418343544,0.010772391222417355,-0.00803640577942133,9.80001163482666,-4.045745299663395e-05,3.804476364166476e-05,-0.026374576613307,0.3670487403869629,-0.08803236484527588,-0.00014976202510297298
1789488999,681332098,16.936689376831055,-285.9863586425781,-2.908066511154175,0.0001059368732967414,-0.000602479325607419,0.9969449639320374,-0.07810452580451965,0.007674751803278923,-0.006687947083264589,9.799994468688965,-2.6717349101090804e-05,3.660208312794566e-05,-0.02699468843638897,0.36734452843666077,-0.08753076195716858,-0.00014932407066226006
1789488999,697911235,16.924135208129883,-285.9853820800781,-2.908066511154175,0.00010567298159003258,-0.0006023162859492004,0.9969812631607056,-0.07764037698507309,0.004562522284686565,-0.005937397014349699,9.799992561340332,2.1481575629422878e-07,3.307761289761402e-05,-0.027607692405581474,0.3675379157066345,-0.08699622750282288,-0.00014893578190822154
1789488999,711028597,16.911584854125977,-285.98443603515625,-2.908066511154175,0.00010541755182202905,-0.0006019678548909724,0.997018039226532,-0.07716619968414307,0.0014914138009771705,-0.005425234325230122,9.799995422363281,1.718208659440279e-05,3.113661296083592e-05,-0.028213514015078545,0.3676301836967468,-0.08643712103366852,-0.00014840324001852423
1789488999,723679424,16.89904022216797,-285.9835205078125,-2.908066511154175,0.00010515958274481818,-0.0006015758262947202,0.9970554113388062,-0.07668213546276093,-0.0015044866595417261,-0.004929705988615751,9.799999237060547,2.3077069272403605e-05,3.093304258072749e-05,-0.028812093660235405,0.36762377619743347,-0.08585429191589355,-0.00014773588918615133
1789488999,737226850,16.886505126953125,-285.9825744628906,-2.908066511154175,0.00010489418491488323,-0.0006012043450027704,0.9970932602882385,-0.07618828862905502,-0.0044195218943059444,-0.004410683177411556,9.800002098083496,2.2813939722254872e-05,3.168224066030234e-05,-0.02940337359905243,0.3675212860107422,-0.08524716645479202,-0.0001469605485908687
1789488999,750400671,16.87396812438965,-285.9816589355469,-2.908066511154175,0.0001045808894559741,-0.0006013853126205504,0.9971315860748291,-0.07568477839231491,-0.0072562070563435555,-0.0038744991179555655,9.800004005432129,2.0735349608003162e-05,3.270197703386657e-05,-0.029987292364239693,0.3673252761363983,-0.08461534231901169,-0.00014613382518291473
1789488999,763505363,16.861419677734375,-285.9807434082031,-2.908066511154175,0.00010423566709505394,-0.0006019103457219899,0.9971703886985779,-0.07517174631357193,0.01381388958543539,-0.007545171305537224,9.800012588500977,-3.853824091493152e-05,4.2475196096347645e-05,-0.030563777312636375,0.36783260107040405,-0.08409888297319412,-0.00014503071724902838
1789488999,776455257,16.84886360168457,-285.9798278808594,-2.9080662727355957,0.00010390980605734512,-0.0006021036533638835,0.9972096681594849,-0.07464929670095444,0.010628235526382923,-0.0062445723451673985,9.799995422363281,-2.5773377274163067e-05,4.1213937947759405e-05,-0.031132813543081284,0.36823487281799316,-0.08353123813867569,-0.00014451444440055639
1789488999,789259342,16.836301803588867,-285.9789123535156,-2.9080662727355957,0.00010360440501244739,-0.0006019494612701237,0.9972493052482605,-0.07411756366491318,0.007435835897922516,-0.005519253201782703,9.799992561340332,-8.95247183052561e-08,3.800510603468865e-05,-0.03169432654976845,0.368531733751297,-0.08293196558952332,-0.0001440608175471425
1789488999,803819806,16.823741912841797,-285.97802734375,-2.908066511154175,0.00010330675286240876,-0.0006016173283569515,0.9972893595695496,-0.0735766738653183,0.0042897858656942844,-0.005017056129872799,9.799992561340332,1.625589902687352e-05,3.621627911343239e-05,-0.032248254865407944,0.36872461438179016,-0.08230894058942795,-0.00014359282795339823
1789488999,817375551,16.81118392944336,-285.9771423339844,-2.908066511154175,0.00010300671419827268,-0.0006012444500811398,0.9973297715187073,-0.07302674651145935,0.0012182856444269419,-0.004541985224932432,9.79999828338623,2.1869542251806706e-05,3.603459117584862e-05,-0.03279455006122589,0.36881589889526367,-0.08166336268186569,-0.0001429159747203812
1789488999,830231937,16.79863166809082,-285.9762878417969,-2.908066511154175,0.00010269988706568256,-0.0006008913042023778,0.9973705410957336,-0.07246790826320648,-0.0017714755376800895,-0.004044977016746998,9.800004959106445,2.1536445274250582e-05,3.6728768463945016e-05,-0.03333315998315811,0.36880823969841003,-0.08099472522735596,-0.00014199739962350577
1789488999,842572968,16.786075592041016,-285.97540283203125,-2.908066511154175,0.00010234959336230531,-0.00060106540331617,0.9974116086959839,-0.07190030068159103,-0.004681182559579611,-0.003523708786815405,9.800004959106445,1.959399196493905e-05,3.764902794500813e-05,-0.033864036202430725,0.36870428919792175,-0.08030242472887039,-0.00014106326852925122
1789488999,856265992,16.77350616455078,-285.97454833984375,-2.908066511154175,0.00010197039955528453,-0.0006015668623149395,0.9974530339241028,-0.07132404297590256,0.01634998433291912,-0.007020093034952879,9.800013542175293,-3.705830022227019e-05,4.652078860090114e-05,-0.034387119114398956,0.369301974773407,-0.07972022891044617,-0.00013986109115649015
1789488999,869800279,16.76092529296875,-285.97369384765625,-2.908066511154175,0.00010160878446185961,-0.000601750856731087,0.997494637966156,-0.0707392618060112,0.01308266632258892,-0.005767344497144222,9.799995422363281,-2.4734807084314525e-05,4.5358359784586355e-05,-0.03490240126848221,0.36979150772094727,-0.07908892631530762,-0.0001392701087752357
1789488999,883825278,16.748336791992188,-285.9728698730469,-2.908066511154175,0.00010126559209311381,-0.000601604173425585,0.9975365400314331,-0.0701460912823677,0.009816326200962067,-0.005075561814010143,9.799992561340332,-2.2576385561023926e-07,4.2456606024643406e-05,-0.03540981188416481,0.37017279863357544,-0.07842761278152466,-0.00013875961303710938
1789488999,898042556,16.735748291015625,-285.9720153808594,-2.908066511154175,0.00010092922457261011,-0.0006012902595102787,0.9975786805152893,-0.06954466551542282,0.0066001685336232185,-0.004597027786076069,9.799996376037598,1.5296262063202448e-05,4.085100590600632e-05,-0.03590930998325348,0.37044739723205566,-0.07774382829666138,-0.00013810470409225672
1789488999,912914375,16.72315788269043,-285.97119140625,-2.908066511154175,0.00010059063788503408,-0.000600938277784735,0.9976209402084351,-0.06893511116504669,0.0034589150454849005,-0.004153225105255842,9.800000190734863,2.044827488134615e-05,4.071439616382122e-05,-0.03640085086226463,0.37061768770217896,-0.07703904807567596,-0.00013730859791394323
1789488999,926219934,16.7105712890625,-285.9703674316406,-2.908066511154175,0.00010024597577285022,-0.0006006047478877008,0.9976634383201599,-0.06831756234169006,0.0004026770475320518,-0.003671183018013835,9.800002098083496,2.0203129679430276e-05,4.1327355575049296e-05,-0.03688439726829529,0.37068650126457214,-0.07631224393844604,-0.00013642299745697528
1789488999,939678131,16.697994232177734,-285.9695739746094,-2.908066511154175,9.989465615944937e-05,-0.0006002996233291924,0.9977060556411743,-0.06769215315580368,-0.0025748293846845627,-0.003177784150466323,9.800004005432129,1.8325701603316702e-05,4.215578155708499e-05,-0.03735990822315216,0.3706563115119934,-0.07556324452161789,-0.0001354710984742269
1789488999,952923482,16.68541145324707,-285.9687805175781,-2.908066511154175,9.950585808837786e-05,-0.0006004799506627023,0.997748851776123,-0.06705901771783829,-0.005475546233355999,-0.0026830346323549747,9.800004959106445,1.675352905294858e-05,4.293005622457713e-05,-0.037827350199222565,0.3705296814441681,-0.07479220628738403,-0.00013449092512018979
1789488999,966929222,16.672815322875977,-285.9679870605469,-2.908066511154175,9.90923581412062e-05,-0.0006009580683894455,0.9977917075157166,-0.06641828268766403,0.015601280145347118,-0.005952775478363037,9.80001449584961,-3.566005761967972e-05,5.059307659394108e-05,-0.03828666731715202,0.37110579013824463,-0.0741245225071907,-0.00013320641301106662
